sec,nanosec,ax,ay,az,gx,gy,gz,time,rel_time
1742308723,15501048,-0.064453125,0.11083984375,1.0986328125,4.7607421875,2.0751953125,16.2353515625,1742308723.015501,48.00590682029724
1742308723,35455604,-0.05078125,0.111328125,0.8662109375,1.28173828125,3.662109375,15.93017578125,1742308723.0354557,48.025861501693726
1742308723,55481333,-0.04541015625,0.09326171875,0.78076171875,-4.2724609375,-2.8076171875,16.6015625,1742308723.0554814,48.04588723182678
1742308723,75603100,0.0244140625,0.06103515625,1.04150390625,-8.60595703125,4.45556640625,14.58740234375,1742308723.075603,48.06600880622864
1742308723,95592059,-0.0283203125,0.01025390625,1.16796875,-0.79345703125,2.685546875,14.70947265625,1742308723.095592,48.08599781990051
1742308723,115492340,-0.02490234375,0.03759765625,0.99365234375,2.86865234375,1.89208984375,15.31982421875,1742308723.1154923,48.10589814186096
1742308723,135405517,0.0615234375,0.09423828125,0.76318359375,-4.2724609375,5.06591796875,13.12255859375,1742308723.1354055,48.12581133842468
1742308723,155448815,0.013671875,0.1201171875,0.79296875,-6.28662109375,-0.6103515625,11.04736328125,1742308723.155449,48.14585471153259
1742308723,175491729,-0.0908203125,0.01904296875,1.03955078125,0.1220703125,-3.35693359375,12.26806640625,1742308723.1754918,48.165897607803345
1742308723,195464975,-0.1328125,0.07666015625,0.966796875,3.173828125,-4.5166015625,14.83154296875,1742308723.195465,48.185870885849
1742308723,215414507,0.00732421875,0.08642578125,0.9638671875,-0.8544921875,0.0,14.5263671875,1742308723.2154145,48.20582032203674
1742308723,235446924,-0.00390625,0.03125,1.00146484375,2.3193359375,1.89208984375,10.43701171875,1742308723.235447,48.225852727890015
1742308723,255452107,0.0546875,0.06689453125,0.9609375,-0.244140625,0.91552734375,6.9580078125,1742308723.2554522,48.24585795402527
1742308723,275588179,0.00244140625,0.0693359375,1.04296875,-7.01904296875,2.0751953125,7.14111328125,1742308723.2755883,48.26599407196045
1742308723,295562737,-0.10546875,0.03857421875,1.0791015625,1.77001953125,-1.5869140625,8.85009765625,1742308723.2955627,48.285968542099
1742308723,315520301,-0.0791015625,0.0771484375,0.93408203125,8.11767578125,-1.5869140625,9.3994140625,1742308723.3155203,48.30592608451843
1742308723,335475882,0.09130859375,0.23779296875,0.78173828125,-3.60107421875,1.220703125,7.080078125,1742308723.335476,48.32588171958923
1742308723,355471465,0.00341796875,0.0634765625,1.0595703125,-6.2255859375,6.591796875,7.26318359375,1742308723.3554714,48.345877170562744
1742308723,375501834,-0.0205078125,0.05517578125,0.95703125,3.90625,-0.48828125,6.4697265625,1742308723.3755019,48.36590766906738
1742308723,395480071,-0.07763671875,0.0615234375,0.81640625,-1.5869140625,-0.30517578125,5.859375,1742308723.3954802,48.3858859539032
1742308723,415437188,-0.02783203125,0.05126953125,0.9697265625,-3.96728515625,-0.1220703125,7.568359375,1742308723.4154372,48.405843019485474
1742308723,435523049,-0.03125,0.1240234375,0.99169921875,-4.82177734375,0.91552734375,7.38525390625,1742308723.435523,48.425928831100464
1742308723,455490406,-0.01171875,0.0908203125,0.943359375,-4.08935546875,1.15966796875,8.36181640625,1742308723.4554904,48.44589614868164
1742308723,475850875,-0.0205078125,0.0478515625,0.95068359375,-4.08935546875,1.8310546875,7.8125,1742308723.4758508,48.466256618499756
1742308723,496034438,-0.06640625,0.00732421875,1.16552734375,10.55908203125,2.44140625,8.544921875,1742308723.4960344,48.48644018173218
1742308723,515857114,-0.05029296875,0.0244140625,0.8671875,2.3193359375,-5.37109375,8.48388671875,1742308723.5158572,48.50626301765442
1742308723,535656109,0.03369140625,0.02294921875,0.96435546875,-5.79833984375,2.44140625,6.04248046875,1742308723.5356562,48.52606201171875
1742308723,555493762,-0.103515625,0.03955078125,1.05908203125,0.42724609375,-3.5400390625,7.4462890625,1742308723.5554938,48.545899629592896
1742308723,575502402,-0.00439453125,0.04345703125,1.06689453125,8.4228515625,-1.15966796875,9.94873046875,1742308723.5755024,48.56590819358826
1742308723,595554148,-0.02001953125,0.13232421875,0.8603515625,4.150390625,1.46484375,8.72802734375,1742308723.595554,48.585959911346436
1742308723,615471166,-0.05712890625,0.05517578125,1.06396484375,0.244140625,0.54931640625,8.23974609375,1742308723.6154711,48.60587692260742
1742308723,635496703,-0.00244140625,0.04248046875,1.0869140625,3.23486328125,0.06103515625,7.2021484375,1742308723.6354966,48.6259024143219
1742308723,655462172,0.04150390625,0.0966796875,0.98876953125,-0.79345703125,1.89208984375,6.16455078125,1742308723.6554623,48.64586806297302
1742308723,675473372,-0.0263671875,0.0908203125,1.0048828125,0.0,3.47900390625,6.16455078125,1742308723.6754735,48.665879249572754
1742308723,695530590,-0.05322265625,0.0791015625,1.05419921875,12.14599609375,0.6103515625,6.8359375,1742308723.6955307,48.68593645095825
1742308723,715464794,-0.06884765625,0.130859375,0.94091796875,1.953125,1.28173828125,7.4462890625,1742308723.7154648,48.705870628356934
1742308723,735459032,-0.05322265625,0.0380859375,0.9052734375,-0.79345703125,0.9765625,7.75146484375,1742308723.735459,48.72586488723755
1742308723,755421493,-0.01513671875,0.0869140625,0.892578125,-1.03759765625,-0.18310546875,5.9814453125,1742308723.7554214,48.745827198028564
1742308723,775528283,-0.0673828125,0.0712890625,0.99267578125,-0.732421875,2.74658203125,7.6904296875,1742308723.7755282,48.765933990478516
1742308723,795579742,-0.0830078125,0.07080078125,1.07421875,-1.0986328125,0.244140625,7.99560546875,1742308723.7955797,48.785985469818115
1742308723,815614207,-0.03173828125,0.05029296875,0.9150390625,-3.23486328125,-0.48828125,5.55419921875,1742308723.8156142,48.8060200214386
1742308723,835527705,-0.00439453125,0.1103515625,0.9423828125,-1.953125,3.0517578125,5.0048828125,1742308723.8355277,48.8259334564209
1742308723,855525656,-0.02099609375,0.0966796875,1.04736328125,2.5634765625,4.150390625,3.72314453125,1742308723.8555257,48.84593152999878
1742308723,875568538,-0.0859375,0.056640625,0.9736328125,2.50244140625,-3.47900390625,1.40380859375,1742308723.8755686,48.86597442626953
1742308723,895544663,-0.056640625,0.056640625,0.796875,-3.35693359375,-2.25830078125,-0.67138671875,1742308723.8955448,48.885950565338135
1742308723,915538998,-0.017578125,0.1171875,0.890625,-6.34765625,-2.685546875,-1.953125,1742308723.915539,48.90594482421875
1742308723,935468017,-0.10009765625,0.08056640625,1.11279296875,-0.06103515625,-1.46484375,2.01416015625,1742308723.935468,48.92587375640869
1742308723,955572919,-0.11669921875,0.103515625,0.97705078125,4.0283203125,-5.37109375,4.94384765625,1742308723.9555728,48.94597864151001
1742308723,975574326,0.09326171875,0.115234375,0.875,-1.8310546875,1.5869140625,0.732421875,1742308723.9755743,48.965980052948
1742308723,995557556,-0.02880859375,0.02978515625,1.005859375,-1.15966796875,2.62451171875,-1.3427734375,1742308723.9955575,48.985963344573975
1742308724,15355513,0.0166015625,0.046875,0.97705078125,-1.3427734375,3.0517578125,-3.35693359375,1742308724.0153556,49.00576138496399
1742308724,35518274,-0.0283203125,0.08349609375,1.03173828125,-0.42724609375,3.41796875,-6.2255859375,1742308724.0355182,49.02592396736145
1742308724,55535682,-0.12158203125,0.02880859375,0.99560546875,7.01904296875,0.9765625,-5.7373046875,1742308724.0555358,49.04594159126282
1742308724,75512256,-0.1044921875,0.10791015625,1.00146484375,5.55419921875,1.220703125,-2.44140625,1742308724.0755122,49.06591796875
1742308724,95630790,-0.08935546875,0.07861328125,1.005859375,0.06103515625,-1.5869140625,-1.03759765625,1742308724.095631,49.086036682128906
1742308724,115484861,-0.00927734375,0.04541015625,0.93896484375,3.173828125,3.5400390625,-1.220703125,1742308724.115485,49.10589075088501
1742308724,135523422,-0.09130859375,0.0888671875,0.8779296875,-1.03759765625,1.77001953125,-1.40380859375,1742308724.1355233,49.12592911720276
1742308724,155578304,-0.10302734375,0.10595703125,0.98779296875,-5.18798828125,-2.86865234375,0.732421875,1742308724.1555784,49.145984172821045
1742308724,175486970,0.00732421875,0.10009765625,0.95849609375,-6.89697265625,4.33349609375,0.67138671875,1742308724.175487,49.16589283943176
1742308724,195569886,-0.0615234375,0.10986328125,0.96728515625,-2.25830078125,-0.1220703125,0.6103515625,1742308724.19557,49.185975790023804
1742308724,215534651,0.01220703125,0.0986328125,1.09326171875,1.89208984375,3.173828125,-1.28173828125,1742308724.2155347,49.20594048500061
1742308724,235495928,-0.0986328125,0.0302734375,0.9853515625,5.79833984375,-4.57763671875,-1.77001953125,1742308724.235496,49.22590184211731
1742308724,255506456,-0.00732421875,0.09033203125,0.80810546875,-0.6103515625,-1.5869140625,-1.77001953125,1742308724.2555065,49.245912313461304
1742308724,275558362,-0.0673828125,0.03271484375,0.984375,-0.3662109375,-0.54931640625,-2.13623046875,1742308724.2755585,49.26596426963806
1742308724,295576186,-0.07666015625,0.06982421875,1.0478515625,2.13623046875,-2.62451171875,0.6103515625,1742308724.295576,49.28598189353943
1742308724,315515285,-0.140625,0.03173828125,1.171875,7.75146484375,-0.6103515625,4.0283203125,1742308724.3155153,49.30592107772827
1742308724,335531446,-0.09033203125,0.05126953125,0.9375,8.9111328125,-1.8310546875,5.06591796875,1742308724.3355315,49.325937271118164
1742308724,355509907,0.02294921875,0.0732421875,0.87353515625,-1.220703125,0.9765625,2.44140625,1742308724.35551,49.34591579437256
1742308724,375768866,0.0615234375,0.0751953125,0.9921875,-3.72314453125,-0.9765625,-0.1220703125,1742308724.375769,49.36617469787598
1742308724,390705806,-0.005859375,0.09033203125,0.947265625,-0.48828125,2.13623046875,-0.6103515625,1742308724.3907058,49.38111162185669
1742308724,415790914,-0.0498046875,0.15576171875,0.9921875,-0.54931640625,0.91552734375,-1.15966796875,1742308724.4157908,49.40619659423828
1742308724,435583892,-0.05078125,0.10302734375,1.08544921875,10.3759765625,0.91552734375,-1.15966796875,1742308724.4355838,49.425989627838135
1742308724,455582131,-0.04150390625,0.11962890625,0.935546875,2.38037109375,1.953125,0.244140625,1742308724.4555821,49.445987939834595
1742308724,475658775,-0.02197265625,0.01025390625,0.923828125,-4.21142578125,6.2255859375,0.30517578125,1742308724.475659,49.46606469154358
1742308724,495516781,-0.07470703125,-0.02001953125,0.91796875,-0.79345703125,1.40380859375,0.48828125,1742308724.4955168,49.48592257499695
1742308724,515753051,-0.07470703125,0.05712890625,0.96533203125,-0.244140625,-3.47900390625,2.25830078125,1742308724.515753,49.50615882873535
1742308724,535614546,0.025390625,0.1513671875,1.0263671875,-3.2958984375,2.01416015625,4.69970703125,1742308724.5356145,49.52602028846741
1742308724,555567502,-0.03564453125,0.1044921875,0.9638671875,-3.96728515625,4.2724609375,5.4931640625,1742308724.5555675,49.54597330093384
1742308724,575626192,-0.0341796875,0.08837890625,0.9755859375,-3.72314453125,-1.77001953125,5.859375,1742308724.5756261,49.56603193283081
1742308724,595693684,-0.0068359375,0.0517578125,0.91162109375,-0.67138671875,1.46484375,7.2021484375,1742308724.5956936,49.58609938621521
1742308724,615506055,-0.11572265625,0.07080078125,0.9111328125,-1.5869140625,-5.2490234375,9.765625,1742308724.6155062,49.60591197013855
1742308724,635582603,-0.021484375,0.14208984375,0.9130859375,-1.8310546875,0.30517578125,10.8642578125,1742308724.6355827,49.625988483428955
1742308724,655675984,-0.017578125,0.10693359375,0.998046875,-3.662109375,-3.0517578125,13.7939453125,1742308724.655676,49.6460816860199
1742308724,675760148,-0.0390625,0.03369140625,1.0537109375,-0.244140625,-2.0751953125,14.2822265625,1742308724.67576,49.666165828704834
1742308724,695652813,-0.02099609375,0.06005859375,1.03955078125,3.173828125,-0.91552734375,15.07568359375,1742308724.6956527,49.68605852127075
1742308724,715515107,-0.0341796875,0.0546875,0.93798828125,-0.54931640625,-1.8310546875,19.47021484375,1742308724.7155151,49.705920934677124
1742308724,735587463,0.06640625,0.03662109375,0.92919921875,-4.7607421875,-0.8544921875,22.3388671875,1742308724.7355874,49.725993156433105
1742308724,755681644,0.0458984375,0.16943359375,0.92626953125,-4.150390625,2.62451171875,21.8505859375,1742308724.7556818,49.74608755111694
1742308724,775700812,0.0322265625,0.07373046875,0.98779296875,-5.2490234375,-0.67138671875,18.5546875,1742308724.7757008,49.766106605529785
1742308724,795579492,0.005859375,0.0703125,1.060546875,6.34765625,1.15966796875,16.2353515625,1742308724.7955794,49.785985231399536
1742308724,815628774,-0.04443359375,0.0791015625,1.06640625,2.99072265625,4.08935546875,17.51708984375,1742308724.8156288,49.806034564971924
1742308724,835639942,-0.03759765625,0.05615234375,0.99658203125,-1.28173828125,1.3427734375,18.85986328125,1742308724.83564,49.826045751571655
1742308724,855749419,-0.0419921875,0.01416015625,0.9306640625,0.06103515625,3.47900390625,20.99609375,1742308724.8557494,49.84615516662598
1742308724,876050109,-0.01220703125,0.02685546875,0.91650390625,0.8544921875,-0.3662109375,21.728515625,1742308724.87605,49.86645579338074
1742308724,895751178,0.01220703125,0.08154296875,1.0576171875,-4.33349609375,3.662109375,20.751953125,1742308724.8957512,49.88615703582764
1742308724,915617569,-0.03515625,0.04345703125,1.02734375,-1.77001953125,-3.2958984375,22.76611328125,1742308724.9156175,49.906023263931274
1742308724,935824588,0.041015625,0.04541015625,0.953125,-1.8310546875,1.220703125,23.681640625,1742308724.9358246,49.92623043060303
1742308724,955624287,-0.07177734375,0.1162109375,0.92578125,2.8076171875,-2.197265625,24.10888671875,1742308724.9556243,49.946030139923096
1742308724,975583356,0.0224609375,0.09716796875,0.8671875,0.0,-2.25830078125,24.90234375,1742308724.9755833,49.965989112854004
1742308724,995558618,-0.03466796875,0.0390625,0.9072265625,-4.21142578125,0.0,23.74267578125,1742308724.9955585,49.98596429824829
1742308725,15477511,-0.05517578125,0.02294921875,1.12744140625,0.79345703125,-4.45556640625,29.60205078125,1742308725.0154774,50.00588321685791
1742308725,35568652,-0.01806640625,0.0068359375,1.0908203125,2.86865234375,0.54931640625,32.53173828125,1742308725.0355687,50.02597451210022
1742308725,56401149,0.07080078125,0.01611328125,0.90966796875,0.42724609375,-0.8544921875,30.1513671875,1742308725.0564013,50.046807050704956
1742308725,75597518,0.0009765625,0.06884765625,0.9765625,0.42724609375,3.41796875,30.029296875,1742308725.0755975,50.06600332260132
1742308725,95652113,-0.0048828125,0.0986328125,1.1103515625,4.45556640625,6.34765625,30.82275390625,1742308725.095652,50.086057901382446
1742308725,115575724,-0.11083984375,0.0634765625,0.94384765625,4.94384765625,-1.77001953125,33.935546875,1742308725.1155758,50.10598158836365
1742308725,135645809,-0.01025390625,0.08642578125,0.95068359375,4.82177734375,-3.90625,34.48486328125,1742308725.1356459,50.12605166435242
1742308725,155737878,0.15234375,0.07421875,1.037109375,6.16455078125,6.16455078125,32.1044921875,1742308725.1557379,50.146143674850464
1742308725,175923297,0.07470703125,0.0732421875,0.998046875,-0.732421875,0.42724609375,31.67724609375,1742308725.1759233,50.16632914543152
1742308725,195973284,-0.0927734375,0.0546875,0.982421875,-0.3662109375,4.08935546875,32.28759765625,1742308725.1959734,50.186379194259644
1742308725,215665170,-0.0849609375,0.03564453125,0.91259765625,2.685546875,0.54931640625,35.82763671875,1742308725.215665,50.20607089996338
1742308725,235834076,0.0302734375,0.037109375,0.890625,-3.84521484375,-0.8544921875,37.109375,1742308725.2358341,50.226239919662476
1742308725,255753911,0.037109375,0.05224609375,0.9501953125,-5.06591796875,1.8310546875,37.78076171875,1742308725.255754,50.24615979194641
1742308725,275771992,0.02001953125,0.1142578125,0.83203125,-5.06591796875,-1.3427734375,39.97802734375,1742308725.275772,50.26617789268494
1742308725,295916769,0.10400390625,0.130859375,0.93798828125,0.732421875,1.89208984375,37.109375,1742308725.2959168,50.286322593688965
1742308725,315620079,0.03857421875,0.109375,0.83740234375,4.638671875,-3.41796875,34.912109375,1742308725.3156202,50.306025981903076
1742308725,335582029,-0.025390625,0.16162109375,0.7626953125,-4.39453125,-1.77001953125,34.7900390625,1742308725.335582,50.325987815856934
1742308725,357069093,-0.00341796875,0.14208984375,0.958984375,-5.92041015625,-3.41796875,37.41455078125,1742308725.357069,50.347474813461304
1742308725,375885215,0.1044921875,0.09521484375,0.99560546875,1.52587890625,3.173828125,36.62109375,1742308725.3758852,50.36629104614258
1742308725,395927905,-0.0029296875,0.07568359375,1.001953125,1.89208984375,2.44140625,38.02490234375,1742308725.395928,50.38633370399475
1742308725,415658065,-0.00634765625,0.1015625,1.0673828125,-0.9765625,-0.1220703125,41.3818359375,1742308725.415658,50.40606379508972
1742308725,435655249,0.03076171875,0.0703125,0.95849609375,0.0,1.708984375,41.32080078125,1742308725.4356554,50.426061153411865
1742308725,450776689,0.09326171875,0.142578125,0.802734375,1.46484375,-1.3427734375,40.34423828125,1742308725.4507766,50.441182374954224
1742308725,475961572,0.1240234375,0.1015625,0.970703125,0.42724609375,4.21142578125,36.9873046875,1742308725.4759617,50.46636748313904
1742308725,495912129,-0.01953125,0.02783203125,1.16748046875,6.89697265625,7.50732421875,36.7431640625,1742308725.495912,50.4863178730011
1742308725,510712717,-0.04150390625,0.0908203125,1.1962890625,6.89697265625,3.0517578125,40.0390625,1742308725.5107126,50.501118421554565
1742308725,535934114,-0.0126953125,0.05859375,1.00048828125,2.86865234375,1.28173828125,39.9169921875,1742308725.5359342,50.52634000778198
1742308725,555775225,-0.05126953125,0.07568359375,0.85791015625,-2.13623046875,0.1220703125,41.19873046875,1742308725.5557752,50.546180963516235
1742308725,570830708,0.013671875,0.08935546875,0.88232421875,-8.60595703125,-2.197265625,43.701171875,1742308725.5708308,50.56123661994934
1742308725,590854549,0.1064453125,0.0400390625,1.0732421875,-3.41796875,4.39453125,43.27392578125,1742308725.5908546,50.581260442733765
1742308725,615819259,0.072265625,0.04345703125,1.03857421875,1.28173828125,0.42724609375,42.78564453125,1742308725.6158192,50.60622501373291
1742308725,635751895,0.02685546875,0.01123046875,1.1376953125,4.8828125,3.60107421875,43.27392578125,1742308725.635752,50.62615776062012
1742308725,655979301,-0.00048828125,0.03271484375,0.90380859375,1.28173828125,-1.8310546875,45.41015625,1742308725.6559794,50.646385192871094
1742308725,675748087,0.060546875,0.1220703125,0.72265625,-2.197265625,1.8310546875,45.7763671875,1742308725.675748,50.66615390777588
1742308725,695613103,0.0322265625,0.14306640625,0.74169921875,-7.32421875,-3.84521484375,45.10498046875,1742308725.6956131,50.68601894378662
1742308725,715739191,0.07177734375,0.09326171875,1.048828125,-3.2958984375,-0.3662109375,45.95947265625,1742308725.7157393,50.70614504814148
1742308725,735722774,0.017578125,0.15185546875,0.9951171875,3.7841796875,0.91552734375,46.2646484375,1742308725.7357228,50.726128578186035
1742308725,755704468,0.03271484375,0.1240234375,0.8916015625,1.03759765625,1.0986328125,46.20361328125,1742308725.7557044,50.74611020088196
1742308725,776187985,0.052734375,0.07470703125,0.9765625,-2.38037109375,0.244140625,44.0673828125,1742308725.776188,50.76659369468689
1742308725,795695700,0.0341796875,0.0654296875,1.02978515625,0.18310546875,5.7373046875,41.80908203125,1742308725.7956958,50.78610157966614
1742308725,815697108,-0.064453125,0.001953125,1.02294921875,-0.3662109375,-1.64794921875,41.68701171875,1742308725.8156972,50.806102991104126
1742308725,835662290,0.1328125,0.05419921875,1.06201171875,2.01416015625,5.37109375,39.36767578125,1742308725.8356624,50.82606816291809
1742308725,855943363,0.0185546875,0.00439453125,0.96923828125,-0.42724609375,3.23486328125,39.85595703125,1742308725.8559434,50.846349239349365
1742308725,877299251,0.08203125,0.0859375,0.76953125,-0.6103515625,2.25830078125,37.41455078125,1742308725.8772993,50.86770510673523
1742308725,895754008,0.09033203125,0.18359375,0.728515625,-3.47900390625,3.662109375,34.85107421875,1742308725.895754,50.886159896850586
1742308725,916093452,-0.06494140625,0.1015625,0.99462890625,-2.197265625,1.03759765625,34.24072265625,1742308725.9160933,50.90649914741516
1742308725,935608271,-0.0654296875,0.07568359375,1.12451171875,2.86865234375,3.41796875,37.29248046875,1742308725.9356084,50.92601418495178
1742308725,955790330,-0.03173828125,0.10595703125,0.9384765625,-1.15966796875,-2.01416015625,40.46630859375,1742308725.9557903,50.94619607925415
1742308725,975836316,0.103515625,0.12109375,1.1181640625,3.662109375,-0.91552734375,41.19873046875,1742308725.9758363,50.96624207496643
1742308725,990809395,0.0595703125,0.064453125,0.9267578125,5.18798828125,-0.06103515625,40.58837890625,1742308725.9908094,50.98121523857117
1742308726,15723721,0.0458984375,0.03369140625,0.96142578125,-0.9765625,3.90625,42.17529296875,1742308726.0157237,51.00612950325012
1742308726,35719850,-0.03955078125,0.0546875,1.01904296875,2.13623046875,-1.8310546875,45.22705078125,1742308726.0357199,51.02612566947937
1742308726,55730669,-0.0361328125,0.10009765625,1.1787109375,6.40869140625,-1.46484375,46.875,1742308726.0557306,51.04613637924194
1742308726,75725870,0.0703125,0.09423828125,1.1220703125,7.75146484375,1.40380859375,46.7529296875,1742308726.0757258,51.066131591796875
1742308726,95723760,0.05126953125,0.0361328125,0.97265625,0.42724609375,3.84521484375,44.98291015625,1742308726.0957239,51.086129665374756
1742308726,110882011,0.0791015625,0.0556640625,0.87744140625,-1.03759765625,7.568359375,43.0908203125,1742308726.110882,51.101287841796875
1742308726,136867382,0.0107421875,0.07568359375,0.89404296875,0.244140625,1.8310546875,40.22216796875,1742308726.1368673,51.127273082733154
1742308726,155991557,0.00341796875,0.1474609375,0.927734375,2.74658203125,-2.50244140625,38.63525390625,1742308726.1559916,51.14639735221863
1742308726,176150768,0.126953125,0.2646484375,0.85400390625,1.15966796875,6.53076171875,32.71484375,1742308726.1761508,51.16655659675598
1742308726,195766044,0.013671875,0.09326171875,0.9541015625,-1.40380859375,0.91552734375,29.9072265625,1742308726.195766,51.186171770095825
1742308726,215645815,0.046875,0.02880859375,0.9775390625,0.9765625,1.89208984375,33.38623046875,1742308726.2156458,51.20605158805847
1742308726,230847940,0.04345703125,0.0830078125,0.94921875,0.42724609375,4.21142578125,36.9873046875,1742308726.2308478,51.221253633499146
1742308726,255960269,0.0029296875,0.10205078125,1.0341796875,2.5634765625,4.39453125,40.10009765625,1742308726.2559602,51.246366024017334
1742308726,276114168,0.03076171875,0.14013671875,1.138671875,-2.62451171875,2.8076171875,40.6494140625,1742308726.2761142,51.26652002334595
1742308726,296222848,-0.03515625,0.00927734375,1.08740234375,0.48828125,-0.06103515625,42.1142578125,1742308726.296223,51.28662872314453
1742308726,316161150,0.07373046875,-0.03515625,1.0615234375,8.11767578125,5.79833984375,42.96875,1742308726.3161612,51.30656695365906
1742308726,335706246,-0.0244140625,0.06591796875,1.1142578125,3.23486328125,6.40869140625,43.212890625,1742308726.3357062,51.326112031936646
1742308726,355824079,-0.0908203125,-0.04541015625,1.17431640625,7.99560546875,-4.0283203125,46.20361328125,1742308726.355824,51.346229791641235
1742308726,375817872,0.00634765625,0.0869140625,0.91162109375,-1.220703125,-0.30517578125,47.30224609375,1742308726.3758178,51.36622357368469
1742308726,395776496,0.01220703125,0.0498046875,0.98486328125,-5.92041015625,-1.0986328125,47.18017578125,1742308726.3957765,51.38618230819702
1742308726,415705006,0.10107421875,0.03857421875,1.0390625,4.33349609375,1.64794921875,44.0673828125,1742308726.415705,51.406110763549805
1742308726,435895098,0.12353515625,0.0830078125,0.87451171875,0.0,6.77490234375,41.80908203125,1742308726.4358952,51.42630100250244
1742308726,455790646,0.00390625,0.13671875,0.9052734375,0.6103515625,2.38037109375,43.88427734375,1742308726.4557908,51.44619655609131
1742308726,475800025,-0.009765625,0.1748046875,0.92529296875,-0.9765625,-0.732421875,47.05810546875,1742308726.4758,51.46620583534241
1742308726,495787002,0.02490234375,0.119140625,0.876953125,1.28173828125,-2.0751953125,47.9736328125,1742308726.495787,51.48619270324707
1742308726,515790364,0.19482421875,0.2001953125,0.88623046875,6.40869140625,7.8125,44.43359375,1742308726.5157905,51.50619626045227
1742308726,535741243,0.13525390625,0.2041015625,0.93896484375,1.8310546875,5.7373046875,41.56494140625,1742308726.5357413,51.52614712715149
1742308726,555813601,0.0263671875,0.1259765625,0.841796875,-2.01416015625,0.732421875,43.02978515625,1742308726.5558136,51.54621934890747
1742308726,575896648,0.07568359375,0.08251953125,0.86328125,2.62451171875,2.13623046875,45.0439453125,1742308726.5758967,51.56630253791809
1742308726,595921003,-0.05126953125,0.10205078125,0.923828125,-3.96728515625,3.173828125,44.3115234375,1742308726.595921,51.58632683753967
1742308726,615776229,0.04736328125,0.0732421875,1.13232421875,-4.7607421875,1.28173828125,41.80908203125,1742308726.6157763,51.60618209838867
1742308726,635857771,0.04248046875,-0.00537109375,1.06103515625,1.708984375,3.35693359375,39.4287109375,1742308726.6358578,51.62626361846924
1742308726,655788105,-0.00048828125,0.00048828125,1.021484375,5.615234375,5.92041015625,38.57421875,1742308726.6557882,51.646193981170654
1742308726,670952596,0.00830078125,0.00634765625,1.025390625,0.18310546875,2.685546875,35.46142578125,1742308726.6709526,51.66135835647583
1742308726,695703688,-0.06982421875,-0.03466796875,1.06201171875,-3.90625,1.89208984375,33.0810546875,1742308726.6957037,51.68610954284668
1742308726,715705226,-0.01611328125,-0.0205078125,1.083984375,2.13623046875,0.244140625,30.1513671875,1742308726.7157052,51.70611095428467
1742308726,735850676,-0.03955078125,0.0068359375,1.1162109375,4.21142578125,2.38037109375,27.40478515625,1742308726.7358506,51.726256370544434
1742308726,755859319,-0.0087890625,0.037109375,1.1591796875,4.8828125,-3.35693359375,25.57373046875,1742308726.7558594,51.746265172958374
1742308726,775952222,0.0029296875,0.10205078125,0.97265625,-3.11279296875,6.77490234375,23.86474609375,1742308726.7759523,51.76635813713074
1742308726,795717650,-0.02783203125,0.0830078125,0.998046875,-4.8828125,1.5869140625,22.8271484375,1742308726.7957177,51.786123514175415
1742308726,815795097,0.0654296875,0.1162109375,1.0048828125,1.89208984375,5.4931640625,22.64404296875,1742308726.8157952,51.80620098114014
1742308726,836028680,-0.01416015625,0.099609375,0.9326171875,-0.79345703125,1.77001953125,21.91162109375,1742308726.8360286,51.82643437385559
1742308726,855985831,0.05029296875,0.0458984375,1.03955078125,4.7607421875,7.75146484375,22.705078125,1742308726.8559859,51.846391677856445
1742308726,870900996,-0.064453125,0.10546875,1.00927734375,0.06103515625,-1.0986328125,23.3154296875,1742308726.870901,51.86130690574646
1742308726,896090129,-0.0185546875,0.1318359375,1.01904296875,2.38037109375,1.3427734375,24.59716796875,1742308726.89609,51.88649582862854
1742308726,915972012,0.00390625,0.1572265625,0.79638671875,1.77001953125,-1.0986328125,24.59716796875,1742308726.915972,51.9063777923584
1742308726,935716704,0.04931640625,0.07861328125,0.84326171875,-6.04248046875,2.3193359375,24.59716796875,1742308726.9357166,51.926122426986694
1742308726,955950447,0.08544921875,0.0400390625,1.03076171875,-2.01416015625,2.38037109375,23.0712890625,1742308726.9559505,51.94635629653931
1742308726,975898254,0.0107421875,0.06005859375,0.96630859375,-4.21142578125,1.46484375,23.4375,1742308726.9758983,51.966304063797
1742308726,995946098,-0.02099609375,0.0078125,1.029296875,-3.84521484375,2.685546875,24.7802734375,1742308726.9959462,51.98635196685791
1742308727,12227958,0.00537109375,-0.0166015625,0.90380859375,0.42724609375,3.96728515625,24.84130859375,1742308727.012228,52.002633810043335
1742308727,35975726,-0.0068359375,0.041015625,0.8740234375,-1.5869140625,-2.86865234375,24.169921875,1742308727.0359757,52.026381492614746
1742308727,56202879,-0.0546875,0.1142578125,0.96142578125,-3.41796875,-0.91552734375,23.49853515625,1742308727.056203,52.046608686447144
1742308727,71074467,-0.087890625,0.07177734375,1.07763671875,-4.7607421875,-2.8076171875,27.03857421875,1742308727.0710745,52.06148028373718
1742308727,95876022,-0.0126953125,0.0732421875,0.962890625,-2.9296875,-1.52587890625,27.34375,1742308727.095876,52.08628177642822
1742308727,115800887,0.0927734375,0.1767578125,0.93310546875,0.42724609375,1.64794921875,24.59716796875,1742308727.1158009,52.10620665550232
1742308727,135739256,-0.060546875,0.14990234375,0.93994140625,3.60107421875,-1.5869140625,22.8271484375,1742308727.1357393,52.126145124435425
1742308727,155812865,0.01171875,0.0732421875,0.9599609375,3.23486328125,-0.79345703125,27.34375,1742308727.155813,52.14621877670288
1742308727,175814982,-0.01025390625,0.05126953125,0.9658203125,1.220703125,-2.13623046875,28.38134765625,1742308727.1758149,52.16622066497803
1742308727,195775336,0.11865234375,0.1025390625,0.962890625,7.080078125,2.9296875,24.59716796875,1742308727.1957753,52.18618106842041
1742308727,215683592,0.03857421875,0.12255859375,0.9169921875,5.06591796875,0.1220703125,20.93505859375,1742308727.2156837,52.20608949661255
1742308727,235850102,0.0048828125,0.03515625,0.9931640625,0.6103515625,7.38525390625,20.6298828125,1742308727.23585,52.226255893707275
1742308727,255897885,-0.03759765625,-0.00927734375,1.0029296875,11.1083984375,1.89208984375,22.64404296875,1742308727.255898,52.24630379676819
1742308727,275817181,-0.03662109375,0.23681640625,0.9150390625,8.60595703125,2.8076171875,25.08544921875,1742308727.2758172,52.26622295379639
1742308727,295705948,0.02392578125,0.154296875,0.99267578125,-2.25830078125,1.46484375,29.47998046875,1742308727.295706,52.28611183166504
1742308727,315757091,-0.0009765625,0.02001953125,0.95361328125,2.3193359375,0.30517578125,32.28759765625,1742308727.315757,52.30616283416748
1742308727,335845133,0.06884765625,0.0615234375,0.89306640625,3.90625,1.3427734375,31.1279296875,1742308727.3358452,52.32625102996826
1742308727,355867731,0.05908203125,0.07666015625,1.04248046875,5.55419921875,0.67138671875,33.87451171875,1742308727.3558676,52.34627342224121
1742308727,376039746,-0.00732421875,0.056640625,0.9716796875,1.40380859375,1.89208984375,33.63037109375,1742308727.3760397,52.366445541381836
1742308727,395768855,0.02587890625,-0.00537109375,0.9033203125,-1.52587890625,1.28173828125,33.0810546875,1742308727.395769,52.38617467880249
1742308727,415789789,-0.017578125,0.03173828125,0.947265625,-0.18310546875,2.9296875,31.92138671875,1742308727.4157898,52.406195640563965
1742308727,435782689,0.02099609375,0.09765625,1.0966796875,5.92041015625,4.150390625,33.26416015625,1742308727.4357827,52.426188468933105
1742308727,455969744,-0.076171875,0.1044921875,1.0615234375,6.591796875,-3.7841796875,34.72900390625,1742308727.4559698,52.446375608444214
1742308727,476945068,0.0224609375,0.1181640625,1.08935546875,7.01904296875,-1.5869140625,34.5458984375,1742308727.4769452,52.46735095977783
1742308727,496288300,-0.0107421875,0.07861328125,1.04052734375,5.0048828125,2.44140625,32.470703125,1742308727.4962883,52.48669409751892
1742308727,516099814,0.00732421875,0.02685546875,0.94140625,3.41796875,2.197265625,33.99658203125,1742308727.5161,52.506505727767944
1742308727,535816699,-0.02880859375,0.05224609375,0.9599609375,-2.0751953125,5.31005859375,35.82763671875,1742308727.5358167,52.526222467422485
1742308727,555949255,-0.03076171875,0.03955078125,1.10498046875,8.7890625,-11.3525390625,35.0341796875,1742308727.5559492,52.54635500907898
1742308727,575896297,0.07666015625,0.21533203125,0.9580078125,4.33349609375,7.9345703125,31.6162109375,1742308727.5758963,52.56630206108093
1742308727,596166653,0.04443359375,0.197265625,0.8037109375,-7.8125,-2.62451171875,34.24072265625,1742308727.5961666,52.58657240867615
1742308727,615902866,0.0751953125,0.05126953125,0.90087890625,-6.9580078125,2.197265625,34.66796875,1742308727.615903,52.606308698654175
1742308727,635861493,0.01416015625,0.01953125,0.984375,-0.48828125,0.1220703125,37.04833984375,1742308727.6358614,52.626267194747925
1742308727,656095911,0.115234375,0.013671875,1.00244140625,2.5634765625,6.103515625,39.4287109375,1742308727.656096,52.646501779556274
1742308727,676003270,0.05126953125,0.02880859375,0.94189453125,-2.38037109375,3.662109375,43.701171875,1742308727.6760032,52.66640901565552
1742308727,691177308,0.02392578125,0.09521484375,1.1083984375,0.244140625,5.06591796875,48.33984375,1742308727.6911774,52.68158316612244
1742308727,715868488,0.06494140625,0.14404296875,0.8798828125,-1.708984375,1.708984375,49.01123046875,1742308727.7158685,52.70627427101135
1742308727,735995028,0.00537109375,0.0537109375,0.86669921875,-1.3427734375,-1.03759765625,49.560546875,1742308727.735995,52.72640085220337
1742308727,756113759,-0.0146484375,0.01025390625,0.9833984375,0.48828125,-1.77001953125,49.072265625,1742308727.7561138,52.746519565582275
1742308727,776077122,0.01806640625,0.02734375,1.17626953125,3.96728515625,1.64794921875,49.8046875,1742308727.776077,52.76648283004761
1742308727,795880956,0.078125,0.10400390625,1.08056640625,1.77001953125,1.708984375,52.3681640625,1742308727.795881,52.7862868309021
1742308727,815836094,0.14501953125,0.07080078125,0.95703125,-2.74658203125,2.50244140625,51.3916015625,1742308727.8158362,52.80624198913574
1742308727,835938888,0.11328125,0.0546875,0.92236328125,-1.64794921875,5.0048828125,49.13330078125,1742308727.835939,52.82634472846985
1742308727,856292673,0.068359375,0.076171875,1.017578125,-0.30517578125,6.9580078125,46.7529296875,1742308727.8562927,52.84669852256775
1742308727,875885135,-0.0146484375,0.029296875,1.029296875,3.47900390625,-0.79345703125,48.15673828125,1742308727.8758852,52.86629104614258
1742308727,895816944,0.1103515625,0.0771484375,0.8701171875,1.708984375,1.03759765625,47.54638671875,1742308727.895817,52.88622283935547
1742308727,915641291,0.1474609375,0.181640625,0.8525390625,-2.685546875,9.6435546875,45.10498046875,1742308727.9156413,52.906047105789185
1742308727,935847867,0.0888671875,0.095703125,0.9443359375,0.244140625,4.7607421875,45.34912109375,1742308727.9358478,52.9262535572052
1742308727,956098382,-0.01025390625,0.1064453125,0.97216796875,0.244140625,3.7841796875,50.84228515625,1742308727.9560983,52.94650411605835
1742308727,976029359,-0.0859375,0.07763671875,1.12255859375,3.0517578125,0.54931640625,54.38232421875,1742308727.9760294,52.9664351940155
1742308727,996041588,-0.017578125,0.01416015625,1.04931640625,-1.64794921875,-0.54931640625,53.7109375,1742308727.9960415,52.98644733428955
1742308728,15743100,0.03173828125,0.017578125,1.068359375,-7.8125,1.89208984375,53.466796875,1742308728.015743,53.00614881515503
1742308728,35974417,0.0654296875,0.0234375,1.16748046875,3.35693359375,6.9580078125,50.96435546875,1742308728.0359745,53.02638030052185
1742308728,56065854,0.0126953125,0.0771484375,0.96240234375,4.0283203125,2.62451171875,47.36328125,1742308728.0560658,53.04647159576416
1742308728,75999363,-0.076171875,0.04052734375,0.95068359375,1.708984375,-0.9765625,49.560546875,1742308728.0759993,53.066405057907104
1742308728,96041710,-0.00341796875,0.107421875,1.0234375,-4.08935546875,-6.103515625,57.9833984375,1742308728.0960417,53.0864474773407
1742308728,115957874,0.02099609375,0.0625,1.2265625,1.28173828125,6.2255859375,63.3544921875,1742308728.115958,53.10636377334595
1742308728,135924440,0.0048828125,0.06005859375,1.0224609375,7.32421875,-4.5166015625,65.24658203125,1742308728.1359243,53.12633013725281
1742308728,156373145,0.17138671875,0.087890625,0.86767578125,0.91552734375,2.25830078125,63.4765625,1742308728.1563733,53.14677906036377
1742308728,175875110,0.140625,0.04345703125,1.00732421875,-2.50244140625,7.14111328125,60.85205078125,1742308728.1758752,53.16628098487854
1742308728,195884751,0.04931640625,-0.0009765625,1.099609375,1.8310546875,5.9814453125,61.58447265625,1742308728.1958847,53.18629050254822
1742308728,215784114,0.00146484375,-0.01318359375,0.9873046875,4.57763671875,-2.50244140625,61.82861328125,1742308728.215784,53.20618987083435
1742308728,235828029,0.11474609375,0.11572265625,1.01220703125,-3.96728515625,10.25390625,58.349609375,1742308728.235828,53.22623372077942
1742308728,255804676,0.0244140625,0.07177734375,1.07958984375,-3.173828125,5.43212890625,61.5234375,1742308728.2558048,53.24621057510376
1742308728,275883921,0.0576171875,0.0908203125,0.931640625,-2.38037109375,-0.1220703125,63.17138671875,1742308728.275884,53.266289710998535
1742308728,295807541,0.0185546875,0.09228515625,0.9765625,-0.244140625,1.3427734375,61.95068359375,1742308728.2958076,53.286213397979736
1742308728,315885570,0.0380859375,0.02880859375,1.2177734375,-0.18310546875,1.89208984375,62.744140625,1742308728.3158855,53.306291341781616
1742308728,335914796,0.02197265625,0.00927734375,1.19287109375,1.15966796875,5.31005859375,63.41552734375,1742308728.3359149,53.32632064819336
1742308728,355906836,0.10888671875,0.04443359375,1.1201171875,3.84521484375,8.85009765625,62.744140625,1742308728.3559067,53.346312522888184
1742308728,376091591,0.05517578125,0.1005859375,0.91259765625,5.9814453125,3.96728515625,59.87548828125,1742308728.3760915,53.3664972782135
1742308728,395929638,0.033203125,0.076171875,1.0693359375,1.8310546875,1.3427734375,57.9833984375,1742308728.3959296,53.386335372924805
1742308728,415871052,-0.091796875,0.06591796875,1.1474609375,2.86865234375,-3.41796875,62.1337890625,1742308728.4158711,53.40627694129944
1742308728,435928663,-0.00927734375,0.06201171875,1.04736328125,3.0517578125,2.74658203125,66.83349609375,1742308728.4359286,53.426334381103516
1742308728,455969346,-0.00927734375,0.1103515625,1.02197265625,3.72314453125,-3.173828125,66.71142578125,1742308728.4559693,53.446375131607056
1742308728,475795105,0.12841796875,0.01708984375,1.1513671875,5.2490234375,5.0048828125,62.1337890625,1742308728.475795,53.466200828552246
1742308728,495821451,0.03173828125,0.05224609375,1.12158203125,8.7890625,6.77490234375,60.11962890625,1742308728.4958215,53.48622727394104
1742308728,515642281,0.02001953125,0.10400390625,0.89453125,-2.62451171875,2.74658203125,60.1806640625,1742308728.5156422,53.50604796409607
1742308728,536127181,0.02783203125,0.0283203125,0.9296875,1.89208984375,1.28173828125,61.1572265625,1742308728.536127,53.526532888412476
1742308728,556158487,0.18212890625,0.09912109375,0.91650390625,4.638671875,7.62939453125,59.02099609375,1742308728.5561585,53.54656434059143
1742308728,575872911,0.07177734375,0.10888671875,0.75732421875,-3.60107421875,0.06103515625,60.4248046875,1742308728.575873,53.56627869606018
1742308728,595875608,0.1025390625,0.138671875,0.71826171875,-5.18798828125,2.25830078125,62.31689453125,1742308728.5958755,53.586281299591064
1742308728,615903810,0.08251953125,0.1328125,0.70654296875,-5.615234375,1.0986328125,62.1337890625,1742308728.6159039,53.60630965232849
1742308728,636066067,0.04296875,0.10107421875,1.05126953125,0.244140625,3.23486328125,63.78173828125,1742308728.636066,53.626471757888794
1742308728,655994904,0.03564453125,0.08154296875,1.15283203125,1.64794921875,2.86865234375,61.5234375,1742308728.655995,53.646400690078735
1742308728,675969055,0.09765625,0.03369140625,1.2021484375,3.662109375,4.150390625,56.2744140625,1742308728.6759691,53.666374921798706
1742308728,695983656,0.00927734375,0.01171875,1.11474609375,10.43701171875,8.1787109375,52.42919921875,1742308728.6959836,53.686389446258545
1742308728,715932558,-0.08984375,0.0068359375,1.1494140625,6.591796875,2.13623046875,49.74365234375,1742308728.7159326,53.70633840560913
1742308728,736231175,-0.05615234375,0.06005859375,1.09716796875,-4.8828125,4.69970703125,50.47607421875,1742308728.736231,53.72663688659668
1742308728,755987042,0.00537109375,0.01806640625,0.97705078125,-2.13623046875,-0.6103515625,51.33056640625,1742308728.755987,53.74639272689819
1742308728,775720604,0.06640625,-0.00732421875,0.89892578125,5.615234375,2.38037109375,47.119140625,1742308728.7757206,53.76612639427185
1742308728,795755430,0.03369140625,0.03759765625,0.81591796875,2.25830078125,-3.41796875,43.3349609375,1742308728.7957554,53.78616118431091
1742308728,815878613,0.1318359375,-0.00244140625,0.953125,-5.55419921875,3.2958984375,44.12841796875,1742308728.8158786,53.80628442764282
1742308728,835943521,0.0263671875,0.05712890625,0.97509765625,-0.732421875,4.5166015625,42.8466796875,1742308728.8359435,53.82634925842285
1742308728,856008749,-0.046875,0.0888671875,0.80810546875,2.38037109375,-4.45556640625,41.68701171875,1742308728.8560088,53.84641456604004
1742308728,875710821,0.080078125,0.14208984375,0.80810546875,-2.685546875,0.42724609375,35.64453125,1742308728.8757107,53.866116523742676
1742308728,895827540,0.140625,0.0751953125,0.9833984375,-3.60107421875,6.8359375,29.78515625,1742308728.8958275,53.88623332977295
1742308728,915733400,0.02783203125,-0.0634765625,0.89501953125,1.3427734375,9.27734375,29.9072265625,1742308728.9157333,53.90613913536072
1742308728,935899849,-0.03857421875,0.025390625,0.8232421875,-2.8076171875,3.84521484375,28.25927734375,1742308728.9358997,53.926305532455444
1742308728,955988311,-0.04052734375,0.07421875,1.076171875,-3.72314453125,6.28662109375,28.01513671875,1742308728.9559884,53.946394205093384
1742308728,975732881,-0.10400390625,0.0625,1.19921875,-0.3662109375,1.5869140625,25.81787109375,1742308728.9757328,53.9661386013031
1742308728,995724249,-0.06201171875,0.119140625,0.986328125,3.41796875,-1.708984375,23.01025390625,1742308728.9957242,53.98612999916077
1742308729,15636561,-0.06689453125,0.140625,1.0205078125,-1.28173828125,3.90625,22.216796875,1742308729.0156364,54.00604224205017
1742308729,36082166,0.0400390625,0.0302734375,1.19091796875,0.67138671875,3.5400390625,17.4560546875,1742308729.0360823,54.026488065719604
1742308729,55998558,-0.044921875,-0.01708984375,1.09765625,5.55419921875,-0.42724609375,16.54052734375,1742308729.0559986,54.04640436172485
1742308729,75937640,-0.0625,0.02099609375,0.90771484375,2.44140625,-0.06103515625,18.4326171875,1742308729.0759377,54.066343545913696
1742308729,95972503,-0.021484375,0.07763671875,0.88818359375,-2.38037109375,-3.11279296875,16.78466796875,1742308729.0959725,54.08637833595276
1742308729,115987941,0.0439453125,0.01025390625,1.02978515625,-6.2255859375,-2.197265625,15.56396484375,1742308729.115988,54.106393814086914
1742308729,136042197,0.06591796875,-0.00927734375,1.00390625,1.220703125,0.06103515625,13.24462890625,1742308729.136042,54.126447916030884
1742308729,155837591,0.00244140625,0.13671875,0.90087890625,4.57763671875,0.0,9.521484375,1742308729.1558375,54.14624333381653
1742308729,175800194,-0.01708984375,0.13427734375,0.9697265625,2.3193359375,2.38037109375,9.82666015625,1742308729.1758,54.16620588302612
1742308729,196194308,-0.10546875,0.09765625,0.95263671875,-1.28173828125,4.69970703125,10.55908203125,1742308729.1961944,54.18660020828247
1742308729,216465280,-0.0830078125,0.06982421875,1.037109375,-2.5634765625,1.8310546875,12.6953125,1742308729.2164652,54.206871032714844
1742308729,235947601,-0.0693359375,0.0859375,1.29296875,11.16943359375,0.8544921875,10.25390625,1742308729.2359476,54.22635340690613
1742308729,256261679,0.09814453125,0.13916015625,0.982421875,12.939453125,-1.28173828125,5.37109375,1742308729.2562616,54.24666738510132
1742308729,275885288,-0.05126953125,0.0576171875,0.87890625,-7.6904296875,8.72802734375,2.685546875,1742308729.2758853,54.26629114151001
1742308729,295879605,-0.03369140625,-0.01953125,1.0166015625,-3.662109375,-0.244140625,2.01416015625,1742308729.2958796,54.286285400390625
1742308729,315814110,-0.017578125,0.0166015625,0.9130859375,5.31005859375,3.23486328125,2.0751953125,1742308729.315814,54.306219816207886
1742308729,336441197,-0.06591796875,0.04931640625,0.91015625,-4.39453125,-4.57763671875,3.90625,1742308729.3364413,54.326847076416016
1742308729,355999970,-0.0703125,-0.00927734375,1.01025390625,-2.8076171875,2.99072265625,4.69970703125,1742308729.356,54.34640574455261
1742308729,375869321,-0.03955078125,0.123046875,1.08544921875,2.0751953125,1.8310546875,6.16455078125,1742308729.3758693,54.36627507209778
1742308729,395918744,-0.0986328125,0.14306640625,0.97802734375,2.5634765625,-1.15966796875,4.150390625,1742308729.3959188,54.386324644088745
1742308729,415882179,-0.06787109375,0.1171875,0.84423828125,-2.62451171875,1.0986328125,5.55419921875,1742308729.415882,54.40628790855408
1742308729,435988150,-0.05126953125,0.0478515625,1.0380859375,-1.52587890625,-2.197265625,5.79833984375,1742308729.4359882,54.42639398574829
1742308729,455972322,0.0244140625,-0.03173828125,1.15966796875,2.3193359375,1.28173828125,4.45556640625,1742308729.4559724,54.446378231048584
1742308729,475788966,-0.1279296875,0.04638671875,1.1142578125,2.62451171875,1.220703125,4.94384765625,1742308729.475789,54.46619486808777
1742308729,495898649,0.04736328125,0.06982421875,1.0283203125,-3.7841796875,-2.5634765625,6.53076171875,1742308729.4958987,54.48630452156067
1742308729,515852963,0.0693359375,0.0830078125,0.9228515625,-1.89208984375,3.41796875,2.8076171875,1742308729.515853,54.506258726119995
1742308729,535895443,-0.0341796875,0.03515625,0.93212890625,-0.91552734375,-2.9296875,1.28173828125,1742308729.5358953,54.52630114555359
1742308729,556011814,-0.033203125,0.05859375,0.85107421875,-0.732421875,0.0,2.62451171875,1742308729.556012,54.54641771316528
1742308729,575803912,0.01708984375,0.16552734375,0.84912109375,0.0,2.62451171875,2.197265625,1742308729.575804,54.56620979309082
1742308729,595711856,-0.0244140625,0.08984375,0.93896484375,-2.197265625,4.21142578125,2.50244140625,1742308729.595712,54.5861177444458
1742308729,615824451,-0.080078125,0.005859375,1.10546875,6.591796875,-3.84521484375,2.8076171875,1742308729.6158245,54.60623025894165
1742308729,635963576,0.1005859375,0.13720703125,0.83544921875,0.3662109375,4.82177734375,-0.1220703125,1742308729.6359637,54.62636947631836
1742308729,655849055,-0.02685546875,0.1201171875,0.81298828125,-9.09423828125,3.90625,-2.8076171875,1742308729.655849,54.646254777908325
1742308729,675843627,-0.06201171875,0.09716796875,0.9306640625,-5.37109375,0.8544921875,0.244140625,1742308729.6758437,54.6662495136261
1742308729,695842776,-0.0634765625,0.0771484375,0.9736328125,2.197265625,-0.30517578125,3.11279296875,1742308729.6958427,54.686248540878296
1742308729,715771714,-0.06494140625,0.11572265625,1.07373046875,2.0751953125,-2.0751953125,4.69970703125,1742308729.7157717,54.70617747306824
1742308729,736091616,-0.00390625,-0.03857421875,1.22119140625,4.39453125,3.173828125,3.35693359375,1742308729.7360916,54.726497411727905
1742308729,756132047,-0.07177734375,0.03271484375,1.125,5.67626953125,1.8310546875,2.5634765625,1742308729.7561321,54.746537923812866
1742308729,775851949,-0.083984375,0.09033203125,0.9638671875,0.9765625,2.25830078125,4.08935546875,1742308729.775852,54.766257762908936
1742308729,795850266,-0.1279296875,0.0732421875,0.99365234375,-1.953125,-4.69970703125,6.65283203125,1742308729.7958503,54.786256074905396
1742308729,815859912,-0.02099609375,-0.03125,1.072265625,2.685546875,1.0986328125,5.55419921875,1742308729.8158598,54.80626559257507
1742308729,835934041,-0.095703125,0.03515625,1.08203125,-0.3662109375,-2.38037109375,5.79833984375,1742308729.835934,54.82633972167969
1742308729,855932774,0.01171875,0.03857421875,1.11376953125,0.0,3.35693359375,7.75146484375,1742308729.8559327,54.846338510513306
1742308729,875992310,-0.02685546875,0.07958984375,0.95068359375,-3.90625,-0.6103515625,8.1787109375,1742308729.8759923,54.866398096084595
1742308729,895836987,-0.01611328125,0.00830078125,0.95703125,0.42724609375,0.48828125,7.080078125,1742308729.895837,54.88624286651611
1742308729,915846536,-0.0478515625,0.05859375,0.8701171875,2.50244140625,-7.50732421875,7.87353515625,1742308729.9158466,54.90625238418579
1742308729,935997406,0.08740234375,0.1328125,0.7998046875,0.30517578125,2.9296875,6.16455078125,1742308729.9359975,54.926403284072876
1742308729,955983914,0.033203125,0.1171875,0.83837890625,-2.38037109375,7.26318359375,4.2724609375,1742308729.9559839,54.94638967514038
1742308729,975838063,0.00390625,0.04150390625,1.00439453125,-2.01416015625,2.197265625,2.50244140625,1742308729.975838,54.966243743896484
1742308729,995750168,-0.10498046875,0.07861328125,1.04150390625,8.48388671875,-3.0517578125,5.9814453125,1742308729.9957502,54.98615598678589
1742308730,15801052,-0.02978515625,0.1640625,0.837890625,-0.18310546875,0.3662109375,8.97216796875,1742308730.015801,55.00620675086975
1742308730,36926377,-0.00634765625,0.06591796875,0.89892578125,-6.103515625,-1.708984375,5.92041015625,1742308730.0369263,55.027332067489624
1742308730,56082415,0.0,-0.00537109375,0.97119140625,-1.46484375,-1.8310546875,5.126953125,1742308730.0560825,55.0464882850647
1742308730,75942715,0.04833984375,0.02197265625,0.8837890625,-0.6103515625,2.5634765625,5.37109375,1742308730.0759428,55.06634855270386
1742308730,95889739,-0.03759765625,0.12548828125,0.943359375,-7.8125,0.79345703125,6.28662109375,1742308730.0958898,55.08629560470581
1742308730,116195533,-0.08837890625,0.06005859375,1.22216796875,3.35693359375,3.90625,7.14111328125,1742308730.1161954,55.10660123825073
1742308730,131175162,-0.0712890625,0.07177734375,1.01611328125,11.23046875,0.42724609375,8.544921875,1742308730.1311753,55.121581077575684
1742308730,156062315,-0.0517578125,0.04736328125,0.83984375,0.79345703125,-4.39453125,9.94873046875,1742308730.1560624,55.14646816253662
1742308730,176188004,0.03466796875,-0.04296875,0.94677734375,-3.84521484375,-0.732421875,7.26318359375,1742308730.176188,55.16659379005432
1742308730,195940490,-0.0546875,0.0712890625,0.99853515625,0.06103515625,-3.90625,7.26318359375,1742308730.1959405,55.18634629249573
1742308730,215973854,0.03515625,0.1416015625,1.05810546875,-2.0751953125,2.38037109375,8.11767578125,1742308730.2159739,55.206379652023315
1742308730,236129305,-0.00048828125,0.078125,1.015625,0.18310546875,2.74658203125,8.6669921875,1742308730.2361293,55.2265350818634
1742308730,256271731,0.00390625,0.13671875,0.92333984375,4.57763671875,1.40380859375,6.8359375,1742308730.2562718,55.24667763710022
1742308730,276019160,-0.02978515625,0.11083984375,0.88427734375,1.5869140625,-5.4931640625,5.0048828125,1742308730.276019,55.266424894332886
1742308730,296197012,-0.0478515625,0.0546875,1.07470703125,1.28173828125,3.5400390625,4.7607421875,1742308730.296197,55.28660273551941
1742308730,316176838,-0.01611328125,0.08154296875,1.00048828125,0.244140625,1.708984375,6.16455078125,1742308730.316177,55.30658268928528
1742308730,336239451,0.0498046875,0.04736328125,0.99609375,2.5634765625,3.96728515625,3.662109375,1742308730.3362393,55.32664513587952
1742308730,351105666,-0.07666015625,0.0908203125,0.87744140625,6.53076171875,-1.953125,0.91552734375,1742308730.3511057,55.341511487960815
1742308730,376023125,-0.03466796875,0.162109375,0.8408203125,0.0,0.8544921875,1.64794921875,1742308730.376023,55.3664288520813
1742308730,395878912,-0.10888671875,0.11083984375,1.017578125,-6.7138671875,-1.220703125,5.43212890625,1742308730.395879,55.386284828186035
1742308730,415954359,-0.0400390625,0.0595703125,1.0419921875,-5.126953125,-0.48828125,5.06591796875,1742308730.4159544,55.406360149383545
1742308730,435928840,0.04150390625,0.06640625,0.998046875,1.03759765625,1.77001953125,4.57763671875,1742308730.4359288,55.426334619522095
1742308730,455923674,0.0283203125,0.0859375,0.83837890625,-0.06103515625,5.615234375,2.197265625,1742308730.4559236,55.44632935523987
1742308730,475871082,-0.03076171875,0.17724609375,1.04443359375,-2.62451171875,4.150390625,2.62451171875,1742308730.475871,55.46627688407898
1742308730,491289550,-0.1591796875,0.0966796875,1.1279296875,2.197265625,2.9296875,5.31005859375,1742308730.4912896,55.48169541358948
1742308730,511116631,-0.08447265625,0.05029296875,0.94384765625,3.47900390625,-5.92041015625,7.01904296875,1742308730.5111167,55.50152254104614
1742308730,536400125,-0.01953125,0.06298828125,0.84326171875,-3.7841796875,0.1220703125,4.5166015625,1742308730.5364,55.52680587768555
1742308730,551108636,-0.05224609375,0.02685546875,0.96533203125,-4.69970703125,-4.8828125,2.01416015625,1742308730.5511086,55.54151439666748
1742308730,571031819,-0.0927734375,0.04345703125,1.0810546875,2.25830078125,-1.28173828125,3.47900390625,1742308730.5710318,55.56143760681152
1742308730,596132871,-0.0537109375,0.06689453125,1.080078125,-1.5869140625,-0.18310546875,4.94384765625,1742308730.5961328,55.586538553237915
1742308730,615939663,-0.0283203125,-0.0009765625,1.052734375,-0.9765625,-0.54931640625,2.0751953125,1742308730.6159396,55.606345415115356
1742308730,631408214,-0.0419921875,0.05078125,0.91015625,0.3662109375,-1.708984375,0.91552734375,1742308730.6314082,55.621814012527466
1742308730,656478929,-0.048828125,0.11572265625,0.9052734375,0.91552734375,0.1220703125,1.28173828125,1742308730.656479,55.64688467979431
1742308730,675934407,-0.00830078125,0.099609375,1.0322265625,0.9765625,-3.60107421875,0.91552734375,1742308730.6759343,55.66634011268616
1742308730,695905208,-0.0126953125,0.1279296875,1.0478515625,0.6103515625,6.7138671875,2.74658203125,1742308730.6959052,55.68631100654602
1742308730,715912587,-0.048828125,0.03955078125,0.94091796875,4.150390625,2.44140625,0.67138671875,1742308730.7159126,55.706318378448486
1742308730,736087334,0.00439453125,0.05859375,0.89111328125,0.244140625,-1.77001953125,0.42724609375,1742308730.7360873,55.72649312019348
1742308730,755977235,-0.1640625,0.064453125,1.056640625,-0.8544921875,2.74658203125,3.41796875,1742308730.7559772,55.74638295173645
1742308730,775895010,-0.0380859375,0.0615234375,0.96630859375,-0.732421875,-2.01416015625,5.615234375,1742308730.775895,55.76630091667175
1742308730,795933910,0.02099609375,0.08740234375,0.95947265625,-1.28173828125,-0.8544921875,5.615234375,1742308730.795934,55.78633975982666
1742308730,816030062,-0.0048828125,0.03369140625,0.92626953125,-1.5869140625,2.99072265625,5.67626953125,1742308730.81603,55.80643582344055
1742308730,836995955,-0.03857421875,0.0927734375,0.95458984375,-0.48828125,4.638671875,6.4697265625,1742308730.8369958,55.827401638031006
1742308730,857125868,-0.02392578125,0.078125,1.09326171875,3.5400390625,-2.62451171875,5.4931640625,1742308730.8571258,55.84753155708313
1742308730,875974722,-0.10888671875,0.10205078125,0.9609375,3.5400390625,-2.38037109375,12.0849609375,1742308730.8759747,55.86638045310974
1742308730,896007831,-0.0517578125,0.0849609375,0.8994140625,0.42724609375,-6.77490234375,21.240234375,1742308730.8960078,55.88641357421875
1742308730,916003913,0.052734375,0.0576171875,0.90283203125,-1.220703125,-1.64794921875,24.10888671875,1742308730.916004,55.906409740448
1742308730,936468692,0.03369140625,0.05419921875,1.0068359375,0.54931640625,0.30517578125,26.3671875,1742308730.9364686,55.92687439918518
1742308730,956297533,0.00390625,0.03173828125,1.12255859375,3.173828125,-6.7138671875,34.3017578125,1742308730.9562976,55.94670343399048
1742308730,976000481,0.07763671875,0.0302734375,1.001953125,2.62451171875,0.3662109375,39.36767578125,1742308730.9760005,55.96640634536743
1742308730,996018644,0.0908203125,0.1494140625,0.8505859375,-1.40380859375,3.47900390625,39.97802734375,1742308730.9960186,55.98642444610596
1742308731,15922294,0.0126953125,0.138671875,0.91943359375,-3.60107421875,1.40380859375,41.19873046875,1742308731.0159223,56.006328105926514
1742308731,36778394,0.0302734375,0.09228515625,1.01220703125,0.8544921875,3.5400390625,44.3115234375,1742308731.0367785,56.02718424797058
1742308731,51194263,0.0283203125,0.09033203125,1.0380859375,3.11279296875,1.52587890625,43.5791015625,1742308731.0511942,56.04159998893738
1742308731,76017446,0.04736328125,0.05029296875,0.884765625,1.5869140625,-0.6103515625,41.80908203125,1742308731.0760174,56.066423177719116
1742308731,95880983,0.08642578125,0.09033203125,0.7861328125,-2.99072265625,7.50732421875,40.1611328125,1742308731.095881,56.086286783218384
1742308731,115999062,0.072265625,0.10888671875,0.82861328125,-3.0517578125,2.685546875,41.07666015625,1742308731.115999,56.10640478134155
1742308731,135972334,-0.03955078125,0.1181640625,0.98193359375,-1.0986328125,-1.220703125,43.5791015625,1742308731.1359723,56.12637805938721
1742308731,155951270,0.0068359375,0.1337890625,1.07861328125,3.47900390625,2.13623046875,45.2880859375,1742308731.1559513,56.14635705947876
1742308731,176402549,-0.03759765625,0.07568359375,0.9482421875,-2.13623046875,-2.9296875,46.32568359375,1742308731.1764026,56.16680836677551
1742308731,195905269,0.083984375,0.02880859375,1.0029296875,-0.3662109375,5.37109375,44.7998046875,1742308731.1959052,56.18631100654602
1742308731,215969457,0.10595703125,0.052734375,0.84814453125,2.86865234375,2.9296875,41.259765625,1742308731.2159696,56.20637536048889
1742308731,235946569,-0.01611328125,0.1240234375,0.83935546875,1.953125,2.13623046875,41.3818359375,1742308731.2359467,56.22635245323181
1742308731,255935553,-0.05615234375,0.12939453125,0.97998046875,-1.708984375,-2.8076171875,43.0908203125,1742308731.2559357,56.24634146690369
1742308731,275997149,0.02099609375,0.02685546875,1.1865234375,-0.91552734375,3.47900390625,43.51806640625,1742308731.2759972,56.26640295982361
1742308731,295963188,-0.12158203125,0.06005859375,1.197265625,10.07080078125,1.708984375,44.98291015625,1742308731.2959633,56.28636908531189
1742308731,316267452,0.01806640625,0.03173828125,1.01513671875,10.1318359375,-1.77001953125,44.86083984375,1742308731.3162675,56.30667328834534
1742308731,335990407,0.0068359375,0.021484375,0.8671875,0.732421875,-0.9765625,42.17529296875,1742308731.3359904,56.326396226882935
1742308731,356046819,0.13720703125,0.06494140625,1.0390625,-0.18310546875,4.82177734375,38.4521484375,1742308731.356047,56.346452713012695
1742308731,375907509,0.01611328125,0.1103515625,1.03271484375,1.8310546875,5.06591796875,37.53662109375,1742308731.3759074,56.366313219070435
1742308731,395889645,-0.00146484375,0.08251953125,1.03662109375,-0.42724609375,2.25830078125,39.36767578125,1742308731.3958898,56.386295557022095
1742308731,416003179,0.06787109375,-0.00244140625,0.97998046875,3.7841796875,1.52587890625,37.2314453125,1742308731.4160032,56.40640902519226
1742308731,436043238,0.0810546875,0.064453125,0.775390625,1.77001953125,4.45556640625,33.935546875,1742308731.4360433,56.42644906044006
1742308731,456022686,0.0068359375,0.1083984375,0.85400390625,-5.55419921875,1.5869140625,30.57861328125,1742308731.4560227,56.446428537368774
1742308731,475979029,-0.064453125,0.07470703125,1.103515625,-5.43212890625,3.0517578125,30.94482421875,1742308731.475979,56.46638488769531
1742308731,496043281,-0.04345703125,0.0498046875,1.06103515625,0.06103515625,-1.89208984375,34.24072265625,1742308731.4960432,56.486449003219604
1742308731,516035625,0.0302734375,0.10302734375,0.83251953125,-1.15966796875,3.2958984375,33.0810546875,1742308731.5160356,56.50644135475159
1742308731,535985728,0.12744140625,0.08154296875,0.95458984375,-2.01416015625,6.9580078125,31.25,1742308731.5359857,56.52639150619507
1742308731,555925397,-0.044921875,0.1552734375,0.857421875,2.197265625,-1.64794921875,31.55517578125,1742308731.5559254,56.54633116722107
1742308731,575998642,0.03759765625,0.2509765625,0.8173828125,-2.74658203125,0.79345703125,31.25,1742308731.5759985,56.56640434265137
1742308731,596003979,0.04248046875,0.1435546875,0.95751953125,-3.7841796875,-2.74658203125,29.60205078125,1742308731.596004,56.5864098072052
1742308731,616140747,0.04345703125,0.037109375,0.92041015625,1.03759765625,0.1220703125,28.564453125,1742308731.6161408,56.60654664039612
1742308731,635991260,0.00146484375,-0.0146484375,0.9443359375,3.72314453125,1.220703125,28.3203125,1742308731.6359913,56.626397132873535
1742308731,655965396,0.0517578125,0.0361328125,0.9609375,-2.9296875,0.42724609375,29.60205078125,1742308731.6559653,56.64637112617493
1742308731,676161719,0.1103515625,0.01025390625,1.12353515625,0.54931640625,5.2490234375,29.052734375,1742308731.6761618,56.66656756401062
1742308731,696180464,-0.03515625,0.1015625,1.02685546875,6.04248046875,0.9765625,27.77099609375,1742308731.6961806,56.68658638000488
1742308731,716252717,0.02685546875,0.1416015625,1.00634765625,-2.74658203125,1.28173828125,31.25,1742308731.7162528,56.706658601760864
1742308731,736182018,0.06298828125,0.10791015625,0.97021484375,-0.67138671875,2.5634765625,30.09033203125,1742308731.736182,56.726587772369385
1742308731,751884416,-0.02294921875,0.16796875,0.89111328125,1.953125,-4.150390625,27.83203125,1742308731.7518845,56.74229025840759
1742308731,776207221,0.0498046875,0.1572265625,0.9345703125,1.77001953125,-1.40380859375,24.90234375,1742308731.7762072,56.7666130065918
1742308731,795998115,0.04443359375,0.078125,0.93896484375,-3.662109375,5.126953125,25.32958984375,1742308731.795998,56.78640389442444
1742308731,816148900,0.02490234375,0.021484375,0.92138671875,-4.21142578125,2.86865234375,27.2216796875,1742308731.816149,56.80655479431152
1742308731,836149245,0.01953125,0.02734375,0.88916015625,-2.74658203125,0.54931640625,26.85546875,1742308731.8361492,56.826555013656616
1742308731,855984589,-0.001953125,0.00634765625,1.04345703125,-0.30517578125,-1.52587890625,25.57373046875,1742308731.8559847,56.84639048576355
1742308731,876040585,0.0888671875,0.0224609375,0.9755859375,-3.173828125,1.89208984375,24.84130859375,1742308731.8760407,56.86644649505615
1742308731,896062691,-0.05126953125,0.06494140625,0.95751953125,1.89208984375,4.2724609375,25.81787109375,1742308731.8960626,56.88646841049194
1742308731,916103582,-0.0576171875,0.12841796875,0.86474609375,1.15966796875,-1.220703125,27.2216796875,1742308731.9161036,56.90650939941406
1742308731,936204028,0.04443359375,0.0546875,1.029296875,-4.5166015625,2.62451171875,26.3671875,1742308731.936204,56.92660975456238
1742308731,956160146,-0.10595703125,0.0400390625,1.1865234375,5.0048828125,-2.38037109375,27.2216796875,1742308731.95616,56.94656586647034
1742308731,976075623,-0.0224609375,0.0673828125,1.0927734375,4.7607421875,1.52587890625,25.87890625,1742308731.9760756,56.96648144721985
1742308731,996009180,-0.02392578125,0.08203125,0.9775390625,-4.150390625,-0.3662109375,26.4892578125,1742308731.996009,56.98641490936279
1742308732,16097358,0.02392578125,0.01904296875,1.04541015625,0.48828125,-0.30517578125,26.3671875,1742308732.0160973,57.006503105163574
1742308732,36195955,0.037109375,0.05517578125,0.85107421875,4.7607421875,1.3427734375,22.4609375,1742308732.036196,57.026601791381836
1742308732,55986857,0.07177734375,0.06640625,0.88037109375,0.30517578125,3.173828125,20.263671875,1742308732.055987,57.04639267921448
1742308732,75997993,0.01611328125,0.00830078125,0.9951171875,-4.82177734375,4.08935546875,21.728515625,1742308732.075998,57.06640386581421
1742308732,96039563,-0.03466796875,0.00048828125,1.04931640625,3.84521484375,2.8076171875,21.66748046875,1742308732.0960395,57.086445331573486
1742308732,116120655,-0.00537109375,0.16943359375,0.87548828125,4.638671875,-1.64794921875,21.97265625,1742308732.1161206,57.106526374816895
1742308732,136032939,0.033203125,0.20751953125,0.8505859375,-2.44140625,1.15966796875,21.3623046875,1742308732.136033,57.12643885612488
1742308732,155991401,-0.0546875,0.0771484375,0.9794921875,-5.126953125,-1.3427734375,22.76611328125,1742308732.1559913,57.14639711380005
1742308732,176045068,-0.009765625,0.03662109375,1.044921875,-0.244140625,-0.48828125,23.13232421875,1742308732.1760452,57.16645097732544
1742308732,195915013,-0.00244140625,-0.02685546875,1.111328125,-0.6103515625,3.35693359375,22.0947265625,1742308732.195915,57.186320781707764
1742308732,216081869,0.06689453125,0.04248046875,0.984375,-2.38037109375,-0.54931640625,23.25439453125,1742308732.2160819,57.20648765563965
1742308732,236024170,0.05908203125,0.0458984375,1.1513671875,1.708984375,2.3193359375,26.0009765625,1742308732.2360241,57.22642993927002
1742308732,255929094,0.01416015625,0.08740234375,0.9658203125,1.953125,-1.40380859375,31.06689453125,1742308732.255929,57.24633479118347
1742308732,275917701,0.138671875,0.20947265625,0.86669921875,-1.15966796875,0.3662109375,39.9169921875,1742308732.2759178,57.26632356643677
1742308732,295948775,-0.02587890625,0.13623046875,0.994140625,-2.99072265625,1.5869140625,52.30712890625,1742308732.2959487,57.286354541778564
1742308732,316057612,0.107421875,0.00634765625,1.02490234375,2.44140625,0.91552734375,58.2275390625,1742308732.3160577,57.30646347999573
1742308732,336096846,0.08251953125,0.06005859375,0.96044921875,3.0517578125,-0.3662109375,61.09619140625,1742308732.3360968,57.326502561569214
1742308732,356052044,0.154296875,0.06201171875,0.9541015625,-0.30517578125,1.89208984375,62.92724609375,1742308732.3560522,57.346457958221436
1742308732,376133392,0.0869140625,0.1767578125,0.96337890625,4.69970703125,6.103515625,62.56103515625,1742308732.3761334,57.36653923988342
1742308732,396033707,0.00537109375,0.21728515625,0.826171875,-3.2958984375,2.5634765625,64.208984375,1742308732.3960338,57.38643956184387
1742308732,417103328,0.02685546875,0.05712890625,0.89306640625,-5.37109375,1.46484375,65.673828125,1742308732.4171033,57.407509088516235
1742308732,436220628,0.15966796875,0.10546875,1.01025390625,11.77978515625,5.859375,62.98828125,1742308732.4362206,57.426626443862915
1742308732,455970919,0.029296875,0.1865234375,0.87841796875,11.65771484375,1.52587890625,58.41064453125,1742308732.455971,57.44637680053711
1742308732,476119631,0.13330078125,0.1640625,0.87841796875,-3.47900390625,7.87353515625,55.72509765625,1742308732.4761195,57.4665253162384
1742308732,496059276,0.07177734375,0.05126953125,0.873046875,-2.99072265625,4.45556640625,61.70654296875,1742308732.4960592,57.486464977264404
1742308732,516642249,-0.029296875,-0.021484375,0.99853515625,2.38037109375,3.72314453125,65.3076171875,1742308732.5166423,57.5070481300354
1742308732,536121871,-0.033203125,0.06591796875,0.94677734375,4.150390625,-4.45556640625,67.2607421875,1742308732.5361218,57.526527643203735
1742308732,556168593,0.19189453125,0.1435546875,0.8759765625,7.080078125,-1.77001953125,66.7724609375,1742308732.5561686,57.54657435417175
1742308732,576056875,0.11328125,0.203125,0.8310546875,-0.48828125,9.09423828125,60.9130859375,1742308732.576057,57.56646275520325
1742308732,596290935,0.162109375,0.24072265625,0.85302734375,-0.6103515625,4.82177734375,62.80517578125,1742308732.5962908,57.58669662475586
1742308732,616156208,-0.04736328125,0.15966796875,0.92138671875,1.40380859375,0.79345703125,62.744140625,1742308732.616156,57.60656189918518
1742308732,636369787,0.0947265625,0.033203125,1.02392578125,4.7607421875,4.21142578125,60.60791015625,1742308732.6363697,57.62677550315857
1742308732,656175569,0.01416015625,0.06396484375,0.97021484375,4.150390625,6.65283203125,56.33544921875,1742308732.6561756,57.646581411361694
1742308732,676146800,0.07666015625,0.0693359375,1.09033203125,2.01416015625,2.25830078125,52.3681640625,1742308732.6761467,57.66655254364014
1742308732,696132527,0.05517578125,0.06640625,0.95361328125,3.72314453125,1.5869140625,50.47607421875,1742308732.6961324,57.686538219451904
1742308732,716183025,0.04248046875,0.02880859375,1.041015625,4.94384765625,2.8076171875,48.33984375,1742308732.716183,57.70658874511719
1742308732,736600134,0.021484375,-0.04833984375,1.04736328125,5.55419921875,9.765625,43.5791015625,1742308732.7366002,57.72700595855713
1742308732,756061195,0.01513671875,0.05029296875,0.994140625,0.42724609375,9.70458984375,40.71044921875,1742308732.756061,57.746466875076294
1742308732,776193458,-0.03759765625,-0.00634765625,1.0478515625,1.52587890625,1.0986328125,38.26904296875,1742308732.7761934,57.76659917831421
1742308732,796251381,0.04736328125,0.0478515625,0.96142578125,1.03759765625,5.06591796875,36.62109375,1742308732.7962513,57.786657094955444
1742308732,817337962,-0.0234375,0.0859375,1.04248046875,-3.0517578125,2.44140625,36.9873046875,1742308732.817338,57.8077437877655
1742308732,836190930,-0.03662109375,0.130859375,0.91650390625,-6.77490234375,-0.1220703125,34.66796875,1742308732.836191,57.82659673690796
1742308732,856856114,-0.05615234375,0.05126953125,0.90478515625,-4.21142578125,-1.8310546875,30.6396484375,1742308732.856856,57.847261905670166
1742308732,876128302,-0.02685546875,0.0703125,0.87890625,0.244140625,-2.9296875,28.564453125,1742308732.8761282,57.86653399467468
1742308732,896340281,0.15869140625,0.05908203125,1.0654296875,0.18310546875,10.009765625,25.20751953125,1742308732.8963404,57.8867461681366
1742308732,916117998,-0.00244140625,0.1494140625,0.94482421875,0.79345703125,7.50732421875,23.01025390625,1742308732.916118,57.90652370452881
1742308732,936082188,-0.09033203125,0.22314453125,0.822265625,-7.75146484375,-4.638671875,22.94921875,1742308732.9360821,57.92648792266846
1742308732,956018665,-0.0546875,0.08349609375,0.9052734375,-2.197265625,-5.18798828125,22.76611328125,1742308732.9560187,57.94642448425293
1742308732,976161648,-0.0048828125,0.0498046875,0.875,2.38037109375,-4.150390625,22.94921875,1742308732.9761617,57.966567516326904
1742308732,991485800,0.07470703125,0.056640625,0.958984375,-2.38037109375,-1.64794921875,21.484375,1742308732.9914858,57.98189163208008
1742308733,11385246,0.0322265625,0.06689453125,1.03125,1.0986328125,0.79345703125,21.8505859375,1742308733.0113852,58.00179100036621
1742308733,36117898,0.0029296875,0.07763671875,1.02880859375,2.74658203125,1.8310546875,23.13232421875,1742308733.0361178,58.02652359008789
1742308733,56037550,-0.02197265625,0.08056640625,0.96484375,0.30517578125,2.50244140625,24.169921875,1742308733.0560377,58.046443462371826
1742308733,76005141,-0.0224609375,0.10009765625,0.935546875,-4.94384765625,0.91552734375,23.25439453125,1742308733.0760052,58.06641101837158
1742308733,96054687,0.10107421875,0.095703125,0.94287109375,-1.8310546875,2.9296875,22.0947265625,1742308733.0960548,58.08646059036255
1742308733,116105481,-0.00146484375,0.1650390625,0.99658203125,2.62451171875,2.01416015625,22.0947265625,1742308733.1161056,58.10651135444641
1742308733,136141971,0.0283203125,0.1240234375,0.96435546875,11.53564453125,1.28173828125,22.94921875,1742308733.136142,58.12654781341553
1742308733,156400295,0.01416015625,0.185546875,0.771484375,-1.52587890625,7.8125,21.54541015625,1742308733.1564002,58.14680600166321
1742308733,176187461,0.03564453125,0.0517578125,0.95166015625,-7.01904296875,6.77490234375,23.5595703125,1742308733.1761875,58.16659331321716
1742308733,196260240,-0.06982421875,-0.0419921875,1.0107421875,-0.54931640625,-5.43212890625,26.18408203125,1742308733.1962602,58.1866660118103
1742308733,216159379,-0.08837890625,0.0654296875,0.88916015625,0.244140625,-9.521484375,29.6630859375,1742308733.2161593,58.206565141677856
1742308733,236255552,0.14990234375,0.1015625,1.0,-2.9296875,0.48828125,26.611328125,1742308733.2362556,58.22666144371033
1742308733,256124673,0.0693359375,0.09228515625,1.0087890625,5.7373046875,6.28662109375,20.32470703125,1742308733.2561247,58.246530532836914
1742308733,275984418,-0.04296875,0.17041015625,0.8515625,-1.28173828125,6.2255859375,20.69091796875,1742308733.2759845,58.266390323638916
1742308733,296041933,-0.08154296875,0.072265625,1.01220703125,-7.6904296875,5.31005859375,24.59716796875,1742308733.296042,58.28644776344299
1742308733,316241214,-0.0966796875,0.05517578125,1.2265625,7.568359375,-0.8544921875,28.13720703125,1742308733.3162413,58.306647062301636
1742308733,335981657,-0.02197265625,0.08642578125,1.1220703125,6.65283203125,-3.662109375,28.01513671875,1742308733.3359816,58.32638740539551
1742308733,356007651,-0.017578125,0.05859375,0.95166015625,-3.35693359375,-2.0751953125,26.2451171875,1742308733.3560076,58.346413373947144
1742308733,376058669,0.06591796875,0.06201171875,0.9951171875,-5.37109375,1.64794921875,22.27783203125,1742308733.3760586,58.366464376449585
1742308733,396119096,0.02587890625,0.1728515625,1.00341796875,4.0283203125,-1.15966796875,18.4326171875,1742308733.396119,58.38652491569519
1742308733,416203844,0.03076171875,0.17529296875,0.97119140625,0.54931640625,-0.30517578125,17.333984375,1742308733.4162037,58.406609535217285
1742308733,436157097,-0.03076171875,0.08935546875,0.921875,-4.69970703125,5.79833984375,17.7001953125,1742308733.436157,58.426562786102295
1742308733,456071245,0.01123046875,0.02587890625,1.0751953125,-2.685546875,3.11279296875,18.00537109375,1742308733.4560711,58.44647693634033
1742308733,476087414,-0.02734375,0.03369140625,1.080078125,6.16455078125,-1.15966796875,18.4326171875,1742308733.4760873,58.466493129730225
1742308733,496104638,0.07177734375,0.064453125,0.9052734375,4.0283203125,0.48828125,16.7236328125,1742308733.4961047,58.48651051521301
1742308733,516050979,-0.0224609375,0.046875,1.0126953125,-4.57763671875,4.39453125,14.22119140625,1742308733.516051,58.50645685195923
1742308733,536375259,-0.10546875,-0.03369140625,1.06103515625,-0.3662109375,3.96728515625,15.93017578125,1742308733.5363753,58.52678108215332
1742308733,556033394,-0.0771484375,0.046875,1.02734375,0.79345703125,-0.244140625,18.73779296875,1742308733.5560334,58.5464391708374
1742308733,576106558,-0.05859375,0.1005859375,1.013671875,-5.67626953125,-3.41796875,19.47021484375,1742308733.5761065,58.5665123462677
1742308733,596100741,-0.0419921875,0.0634765625,1.2265625,3.5400390625,-0.8544921875,20.44677734375,1742308733.5961008,58.586506605148315
1742308733,616206962,-0.01171875,0.056640625,1.0966796875,6.65283203125,-0.06103515625,18.5546875,1742308733.616207,58.60661268234253
1742308733,636188377,-0.01806640625,0.052734375,0.892578125,-4.150390625,2.99072265625,18.9208984375,1742308733.6361883,58.62659406661987
1742308733,656182337,-0.06787109375,0.06396484375,0.89453125,-5.43212890625,3.60107421875,19.95849609375,1742308733.6561823,58.64658808708191
1742308733,676104741,-0.01025390625,0.05810546875,0.97509765625,-1.40380859375,-2.86865234375,21.484375,1742308733.6761048,58.666510581970215
1742308733,696174928,-0.00341796875,0.10888671875,1.1181640625,7.8125,2.44140625,19.95849609375,1742308733.6961749,58.686580657958984
1742308733,716392226,-0.05810546875,0.10107421875,1.10302734375,9.33837890625,0.91552734375,19.10400390625,1742308733.7163923,58.70679807662964
1742308733,736279045,-0.02685546875,0.0654296875,1.0166015625,3.173828125,-4.2724609375,21.8505859375,1742308733.736279,58.72668480873108
1742308733,756112869,0.0458984375,0.0419921875,0.8681640625,1.52587890625,-0.48828125,21.8505859375,1742308733.7561128,58.74651861190796
1742308733,776116045,0.0234375,0.052734375,0.8876953125,2.44140625,-4.08935546875,19.83642578125,1742308733.7761161,58.76652193069458
1742308733,796124533,0.08544921875,0.056640625,1.0048828125,2.86865234375,3.662109375,21.1181640625,1742308733.7961245,58.78653025627136
1742308733,816161118,-0.01025390625,0.060546875,0.9306640625,-2.74658203125,1.0986328125,25.5126953125,1742308733.8161612,58.80656695365906
1742308733,836161670,0.03076171875,0.11865234375,0.97509765625,-1.220703125,0.79345703125,25.5126953125,1742308733.8361616,58.82656741142273
1742308733,856164078,-0.01171875,0.06005859375,1.02001953125,3.47900390625,-6.34765625,26.3671875,1742308733.856164,58.846569776535034
1742308733,876172695,-0.046875,0.12744140625,0.947265625,0.67138671875,-0.48828125,36.1328125,1742308733.8761728,58.866578578948975
1742308733,896132028,0.12646484375,0.10107421875,1.06689453125,1.28173828125,-1.28173828125,48.095703125,1742308733.896132,58.88653779029846
1742308733,916223465,0.12353515625,-0.00244140625,1.13720703125,5.18798828125,2.25830078125,56.45751953125,1742308733.9162235,58.90662932395935
1742308733,936351127,0.029296875,0.01123046875,1.0498046875,3.23486328125,2.38037109375,60.72998046875,1742308733.936351,58.926756858825684
1742308733,956155541,0.10693359375,0.041015625,1.13525390625,1.46484375,11.5966796875,59.9365234375,1742308733.9561555,58.946561336517334
1742308733,976158813,0.0283203125,0.1025390625,0.91650390625,-0.244140625,5.43212890625,59.63134765625,1742308733.9761589,58.966564655303955
1742308733,996170822,-0.0283203125,0.134765625,0.9853515625,-0.79345703125,-0.79345703125,61.82861328125,1742308733.9961708,58.986576557159424
1742308734,16433871,-0.03662109375,0.04296875,1.05029296875,3.47900390625,-2.13623046875,62.5,1742308734.016434,59.006839752197266
1742308734,36236854,0.00830078125,0.04150390625,1.08984375,2.9296875,1.953125,63.04931640625,1742308734.0362368,59.02664256095886
1742308734,56134786,0.12744140625,0.02978515625,0.9921875,1.0986328125,1.5869140625,62.1337890625,1742308734.0561347,59.04654049873352
1742308734,76184597,0.205078125,0.06640625,0.87548828125,2.197265625,4.2724609375,62.1337890625,1742308734.0761845,59.066590309143066
1742308734,96315051,0.1123046875,0.0419921875,0.89111328125,-0.06103515625,4.45556640625,62.31689453125,1742308734.0963151,59.08672094345093
1742308734,116413281,0.12109375,0.11181640625,0.84521484375,-1.46484375,6.9580078125,62.8662109375,1742308734.1164134,59.10681915283203
1742308734,136263146,0.0634765625,0.1298828125,0.9169921875,-2.62451171875,3.173828125,62.43896484375,1742308734.1362631,59.12666893005371
1742308734,156106771,0.04296875,0.12646484375,0.96826171875,4.0283203125,6.2255859375,61.1572265625,1742308734.1561067,59.146512508392334
1742308734,176119364,0.01806640625,0.06396484375,0.90966796875,7.01904296875,-4.21142578125,62.1337890625,1742308734.1761193,59.16652512550354
1742308734,196232410,0.2060546875,0.091796875,0.8779296875,1.220703125,4.150390625,59.02099609375,1742308734.1962323,59.18663811683655
1742308734,216291949,0.0419921875,0.05126953125,0.890625,-7.6904296875,4.57763671875,62.92724609375,1742308734.216292,59.20669770240784
1742308734,236237339,0.05712890625,0.06201171875,1.06298828125,-2.44140625,5.37109375,64.8193359375,1742308734.2362373,59.226643085479736
1742308734,256511673,0.01953125,0.0986328125,0.95654296875,2.0751953125,2.25830078125,65.12451171875,1742308734.2565117,59.246917486190796
1742308734,276514377,0.150390625,0.10595703125,1.01611328125,-1.77001953125,8.97216796875,66.162109375,1742308734.2765143,59.26692008972168
1742308734,296222540,0.103515625,0.0712890625,0.89697265625,-3.96728515625,5.18798828125,62.56103515625,1742308734.2962224,59.28662824630737
1742308734,316269535,0.13134765625,0.05810546875,0.8447265625,-2.38037109375,2.50244140625,61.279296875,1742308734.3162696,59.30667543411255
1742308734,336330994,0.0341796875,0.109375,0.7783203125,2.13623046875,0.18310546875,62.8662109375,1742308734.336331,59.32673668861389
1742308734,356194140,0.0693359375,0.18212890625,0.8349609375,0.91552734375,-5.37109375,63.8427734375,1742308734.3561943,59.34660005569458
1742308734,376521500,0.07763671875,0.12939453125,0.99853515625,1.52587890625,1.40380859375,65.00244140625,1742308734.3765216,59.3669273853302
1742308734,396363141,0.08984375,0.02880859375,0.90087890625,3.60107421875,0.244140625,67.626953125,1742308734.3963633,59.38676905632019
1742308734,416483899,0.171875,0.171875,0.80419921875,1.220703125,3.173828125,65.7958984375,1742308734.4164839,59.40688967704773
1742308734,436418057,0.08154296875,0.22412109375,0.73876953125,-3.0517578125,-1.40380859375,63.65966796875,1742308734.436418,59.42682385444641
1742308734,456254737,0.15771484375,0.1748046875,0.8896484375,2.5634765625,3.23486328125,61.767578125,1742308734.4562547,59.44666051864624
1742308734,476268610,0.12158203125,0.177734375,1.0244140625,9.58251953125,8.48388671875,59.87548828125,1742308734.4762685,59.46667432785034
1742308734,496335318,0.08056640625,0.14306640625,0.9638671875,9.3994140625,1.28173828125,59.14306640625,1742308734.4963353,59.486741065979004
1742308734,516315334,0.130859375,0.1806640625,0.93115234375,0.67138671875,9.09423828125,57.31201171875,1742308734.5163152,59.50672101974487
1742308734,536441340,0.01513671875,0.0576171875,1.125,-1.03759765625,7.32421875,60.60791015625,1742308734.5364413,59.52684712409973
1742308734,556184544,0.01220703125,-0.01953125,1.23388671875,3.662109375,6.65283203125,62.6220703125,1742308734.5561845,59.54659032821655
1742308734,576190929,-0.01904296875,0.05859375,1.14697265625,-0.30517578125,7.99560546875,62.744140625,1742308734.576191,59.5665967464447
1742308734,596436205,0.06689453125,0.05859375,1.1376953125,1.953125,0.1220703125,65.0634765625,1742308734.5964363,59.58684206008911
1742308734,616361850,0.048828125,0.15771484375,1.07275390625,11.474609375,7.4462890625,63.78173828125,1742308734.6163619,59.606767654418945
1742308734,636307272,0.09716796875,0.21337890625,0.85693359375,4.33349609375,0.0,62.07275390625,1742308734.6363072,59.626713037490845
1742308734,656171378,0.08251953125,0.115234375,0.890625,-3.47900390625,1.40380859375,59.63134765625,1742308734.6561713,59.64657711982727
1742308734,676139681,0.05322265625,0.0830078125,1.05615234375,2.0751953125,3.60107421875,58.04443359375,1742308734.6761396,59.666545391082764
1742308734,696131409,0.03759765625,0.1123046875,1.10205078125,1.0986328125,2.99072265625,60.24169921875,1742308734.6961315,59.68653726577759
1742308734,716434384,0.05419921875,0.0341796875,1.10498046875,-1.15966796875,1.3427734375,63.720703125,1742308734.7164345,59.70684027671814
1742308734,736298810,0.033203125,-0.03076171875,1.1171875,4.150390625,4.33349609375,65.7958984375,1742308734.7362988,59.726704597473145
1742308734,756176325,0.0419921875,-0.0458984375,1.04931640625,4.39453125,1.46484375,64.02587890625,1742308734.7561762,59.74658203125
1742308734,776158132,0.13671875,-0.0009765625,1.001953125,0.30517578125,5.55419921875,63.29345703125,1742308734.776158,59.7665638923645
1742308734,796477812,0.0712890625,0.04638671875,1.14453125,0.42724609375,2.50244140625,63.29345703125,1742308734.7964778,59.78688359260559
1742308734,816243418,0.06787109375,0.017578125,1.1494140625,7.080078125,5.31005859375,60.24169921875,1742308734.8162434,59.80664920806885
1742308734,836170183,0.11376953125,0.07373046875,0.984375,8.9111328125,2.86865234375,55.35888671875,1742308734.8361702,59.82657599449158
1742308734,856152854,0.06591796875,0.0810546875,1.0771484375,-1.46484375,6.591796875,53.77197265625,1742308734.8561528,59.846558570861816
1742308734,876192009,-0.1064453125,0.0517578125,1.17578125,-7.568359375,8.11767578125,59.2041015625,1742308734.876192,59.86659789085388
1742308734,896445061,-0.00439453125,-0.0380859375,1.1318359375,1.0986328125,-0.18310546875,64.75830078125,1742308734.896445,59.88685083389282
1742308734,916284302,0.1083984375,0.0390625,0.84814453125,4.7607421875,1.5869140625,61.95068359375,1742308734.9162843,59.90669012069702
1742308734,936320064,0.16162109375,0.09033203125,0.81103515625,-0.79345703125,2.9296875,62.1337890625,1742308734.93632,59.9267258644104
1742308734,956432566,0.21826171875,0.0107421875,0.81982421875,-3.96728515625,4.08935546875,60.546875,1742308734.9564326,59.94683837890625
1742308734,976346882,0.12353515625,0.0693359375,0.82470703125,-1.28173828125,5.4931640625,61.46240234375,1742308734.976347,59.966752767562866
1742308734,999797910,0.0361328125,0.1826171875,0.7099609375,-4.2724609375,2.5634765625,57.861328125,1742308734.9997978,59.990203619003296
1742308735,17204032,0.02490234375,0.14599609375,0.91796875,-4.0283203125,3.23486328125,56.396484375,1742308735.017204,60.007609844207764
1742308735,41505312,-0.01220703125,0.07421875,1.14013671875,3.5400390625,-1.77001953125,54.26025390625,1742308735.0415053,60.03191113471985
1742308735,51662004,0.01953125,0.05078125,1.08642578125,-0.42724609375,2.9296875,49.8046875,1742308735.051662,60.042067766189575
1742308735,79364593,0.02392578125,0.04638671875,1.09228515625,9.033203125,-0.79345703125,47.79052734375,1742308735.0793645,60.06977033615112
1742308735,91832368,0.08837890625,-0.0078125,1.07080078125,3.23486328125,5.37109375,44.37255859375,1742308735.0918324,60.08223819732666
1742308735,117148223,0.00048828125,0.08056640625,1.16455078125,1.03759765625,5.55419921875,47.42431640625,1742308735.1171482,60.10755395889282
1742308735,136639489,0.0,0.08349609375,1.18603515625,2.0751953125,4.39453125,44.677734375,1742308735.1366396,60.12704539299011
1742308735,156827812,-0.0341796875,0.07275390625,1.19921875,6.16455078125,6.7138671875,44.61669921875,1742308735.156828,60.147233724594116
1742308735,176693783,0.0126953125,-0.0263671875,1.10888671875,8.48388671875,1.708984375,41.44287109375,1742308735.1766937,60.167099475860596
1742308735,191583238,-0.0322265625,0.0068359375,1.10107421875,-2.25830078125,12.02392578125,36.865234375,1742308735.1915832,60.18198895454407
1742308735,216370748,-0.08056640625,0.00537109375,1.0712890625,-4.82177734375,2.44140625,40.4052734375,1742308735.2163708,60.20677661895752
1742308735,236463578,0.0361328125,0.044921875,1.0048828125,0.6103515625,2.0751953125,39.1845703125,1742308735.2364635,60.226869344711304
1742308735,256450612,0.0732421875,0.06396484375,0.7705078125,-3.72314453125,1.5869140625,35.82763671875,1742308735.2564507,60.246856451034546
1742308735,276189953,0.14599609375,0.048828125,0.97265625,-2.685546875,5.4931640625,29.78515625,1742308735.27619,60.2665958404541
1742308735,296218941,-0.0126953125,0.03076171875,0.80810546875,-3.96728515625,6.65283203125,22.39990234375,1742308735.2962189,60.28662467002869
1742308735,316235447,-0.04931640625,0.22607421875,0.75439453125,-5.43212890625,2.50244140625,11.65771484375,1742308735.3162355,60.30664134025574
1742308735,336572289,-0.14697265625,0.1318359375,0.8984375,1.46484375,0.8544921875,3.5400390625,1742308735.3365722,60.32697796821594
1742308735,351690361,-0.15966796875,0.12255859375,0.9248046875,-1.220703125,-2.8076171875,-0.30517578125,1742308735.3516903,60.34209609031677
1742308735,376525042,0.0302734375,0.06298828125,0.99658203125,-1.89208984375,2.62451171875,-4.57763671875,1742308735.376525,60.36693072319031
1742308735,396334307,0.03271484375,0.09521484375,0.91357421875,-1.89208984375,2.5634765625,-11.53564453125,1742308735.3963344,60.38674020767212
1742308735,416294491,-0.02880859375,0.173828125,0.9169921875,-0.732421875,-1.3427734375,-12.6953125,1742308735.4162946,60.40670037269592
1742308735,436216946,-0.0576171875,0.1669921875,0.94287109375,1.0986328125,-4.2724609375,-9.033203125,1742308735.4362168,60.42662262916565
1742308735,457209465,-0.02880859375,0.087890625,0.87646484375,5.7373046875,-2.3193359375,-9.33837890625,1742308735.4572093,60.44761514663696
1742308735,476648953,-0.0322265625,0.0576171875,0.90380859375,0.06103515625,-1.03759765625,-11.41357421875,1742308735.476649,60.46705484390259
1742308735,496268898,0.00048828125,0.03271484375,0.9951171875,-3.0517578125,0.732421875,-14.16015625,1742308735.496269,60.486674785614014
1742308735,516534408,-0.0205078125,0.0546875,0.90673828125,-1.5869140625,0.244140625,-14.0380859375,1742308735.5165343,60.50694012641907
1742308735,531805607,-0.03466796875,0.1044921875,0.87060546875,-2.0751953125,0.79345703125,-13.97705078125,1742308735.5318055,60.52221131324768
1742308735,556417430,-0.0390625,0.1416015625,0.9375,-1.708984375,2.74658203125,-13.85498046875,1742308735.5564175,60.546823263168335
1742308735,576867108,-0.173828125,0.0556640625,1.08837890625,-4.638671875,-2.44140625,-11.16943359375,1742308735.576867,60.567272901535034
1742308735,591538025,-0.033203125,0.05126953125,1.22119140625,6.591796875,3.173828125,-12.39013671875,1742308735.591538,60.58194375038147
1742308735,611470239,-0.0986328125,0.00048828125,1.0556640625,10.1318359375,0.6103515625,-12.451171875,1742308735.6114702,60.60187602043152
1742308735,636651752,-0.09716796875,0.0009765625,1.083984375,-4.45556640625,2.8076171875,-11.1083984375,1742308735.6366518,60.62705755233765
1742308735,656581855,-0.09765625,0.03662109375,1.0908203125,-2.197265625,-2.62451171875,-13.3056640625,1742308735.6565819,60.64698767662048
1742308735,676532374,-0.13134765625,0.103515625,0.998046875,1.953125,-0.67138671875,-12.14599609375,1742308735.6765323,60.666938066482544
1742308735,696728217,-0.03125,0.1435546875,0.94921875,4.57763671875,0.3662109375,-11.8408203125,1742308735.6967282,60.68713402748108
1742308735,716483592,-0.123046875,0.126953125,0.90673828125,1.220703125,-4.33349609375,-10.07080078125,1742308735.7164836,60.706889390945435
1742308735,736433983,0.02392578125,0.037109375,0.962890625,-0.91552734375,1.15966796875,-9.82666015625,1742308735.736434,60.726839780807495
1742308735,751825573,0.00341796875,0.00830078125,0.998046875,5.0048828125,2.13623046875,-10.80322265625,1742308735.7518256,60.742231369018555
1742308735,779307223,-0.0322265625,0.08837890625,1.09619140625,2.9296875,3.84521484375,-11.04736328125,1742308735.7793071,60.769712924957275
1742308735,796867745,-0.13232421875,0.068359375,1.12841796875,2.50244140625,-3.96728515625,-7.8125,1742308735.7968678,60.787273645401
1742308735,817079653,-0.0908203125,0.07958984375,1.05810546875,7.75146484375,-6.04248046875,-6.53076171875,1742308735.8170795,60.80748534202576
1742308735,836017677,-0.0830078125,0.01513671875,0.95556640625,4.69970703125,-4.94384765625,-6.34765625,1742308735.8360176,60.82642340660095
1742308735,856047721,0.01904296875,0.0234375,1.0537109375,1.5869140625,-2.25830078125,-9.521484375,1742308735.8560476,60.84645342826843
1742308735,876004481,-0.03857421875,0.08544921875,1.150390625,2.50244140625,1.8310546875,-10.986328125,1742308735.8760045,60.86641025543213
1742308735,896189955,-0.01708984375,0.01318359375,1.12255859375,2.86865234375,7.8125,-8.97216796875,1742308735.89619,60.886595726013184
1742308735,916199453,-0.1298828125,0.037109375,0.97705078125,0.18310546875,-1.52587890625,-6.34765625,1742308735.9161994,60.90660524368286
1742308735,936034639,0.0029296875,0.06103515625,0.931640625,2.62451171875,-2.01416015625,-7.4462890625,1742308735.9360347,60.926440477371216
1742308735,956154511,-0.041015625,0.0927734375,0.796875,-3.84521484375,6.9580078125,-9.27734375,1742308735.9561546,60.94656038284302
1742308735,977079123,-0.1044921875,0.02294921875,1.0458984375,-2.8076171875,-0.8544921875,-7.568359375,1742308735.9770792,60.96748495101929
1742308735,996231686,-0.07421875,0.1064453125,0.96630859375,2.3193359375,-4.150390625,-6.4697265625,1742308735.9962318,60.986637592315674
1742308736,16240534,0.02783203125,0.17138671875,0.900390625,-1.15966796875,1.77001953125,-7.26318359375,1742308736.0162406,61.006646394729614
1742308736,36138806,-0.0791015625,0.14892578125,0.880859375,-4.150390625,-2.9296875,-7.080078125,1742308736.0361388,61.02654457092285
1742308736,56186140,-0.05517578125,0.169921875,0.9970703125,0.244140625,0.42724609375,-5.18798828125,1742308736.0561862,61.046591997146606
1742308736,76501038,-0.0888671875,0.1396484375,0.90380859375,2.25830078125,-0.67138671875,-3.47900390625,1742308736.0765011,61.06690692901611
1742308736,96309833,-0.06982421875,0.08154296875,0.8681640625,-2.25830078125,-3.41796875,-2.74658203125,1742308736.09631,61.08671569824219
1742308736,116435315,-0.00439453125,0.0439453125,1.041015625,-2.62451171875,4.82177734375,-3.0517578125,1742308736.1164353,61.10684108734131
1742308736,136338450,-0.109375,0.02099609375,1.10546875,3.41796875,-1.64794921875,-2.99072265625,1742308736.1363385,61.12674427032471
1742308736,156960082,-0.05224609375,0.04345703125,1.16845703125,7.38525390625,0.6103515625,-4.39453125,1742308736.15696,61.14736580848694
1742308736,176097519,-0.1435546875,-0.03125,1.0654296875,2.38037109375,-2.86865234375,-3.47900390625,1742308736.1760976,61.16650342941284
1742308736,196391936,-0.11083984375,0.01220703125,0.92578125,0.9765625,-4.0283203125,-1.89208984375,1742308736.1963918,61.18679761886597
1742308736,216237117,-0.00244140625,0.0712890625,0.9052734375,-1.77001953125,-1.220703125,-1.953125,1742308736.216237,61.206642866134644
1742308736,236319429,0.05224609375,0.111328125,1.048828125,0.48828125,0.48828125,-3.90625,1742308736.2363195,61.226725339889526
1742308736,256458895,-0.009765625,0.1513671875,1.16943359375,7.4462890625,4.638671875,-4.7607421875,1742308736.256459,61.246864795684814
1742308736,276553975,-0.080078125,0.0673828125,1.009765625,1.52587890625,-0.732421875,-4.08935546875,1742308736.2765539,61.26695966720581
1742308736,296285071,-0.0654296875,-0.0107421875,0.94775390625,-3.173828125,1.77001953125,-1.40380859375,1742308736.2962852,61.28669095039368
1742308736,316375159,-0.04541015625,-0.01416015625,0.90087890625,3.47900390625,-0.6103515625,1.77001953125,1742308736.3163753,61.30678105354309
1742308736,336289655,-0.05517578125,0.06689453125,0.9609375,-0.30517578125,1.8310546875,1.52587890625,1742308736.3362896,61.32669544219971
1742308736,356481220,0.029296875,0.1474609375,0.90234375,-2.3193359375,0.54931640625,0.3662109375,1742308736.3564813,61.34688711166382
1742308736,376447398,-0.0712890625,0.19677734375,0.90478515625,-4.8828125,1.64794921875,2.13623046875,1742308736.3764474,61.3668532371521
1742308736,396212640,-0.01416015625,0.06982421875,1.03515625,3.5400390625,2.13623046875,1.46484375,1742308736.3962126,61.3866183757782
1742308736,416181794,-0.10400390625,0.06005859375,0.99072265625,7.14111328125,-4.7607421875,0.67138671875,1742308736.4161818,61.40658760070801
1742308736,436207751,-0.06884765625,0.04931640625,0.92529296875,-3.96728515625,1.46484375,2.44140625,1742308736.4362078,61.426613569259644
1742308736,451324623,-0.01318359375,0.09130859375,0.779296875,-5.67626953125,-1.77001953125,5.4931640625,1742308736.4513247,61.44173049926758
1742308736,471547901,0.04345703125,0.14111328125,0.953125,-5.43212890625,-1.8310546875,4.150390625,1742308736.4715478,61.46195363998413
1742308736,491539169,0.00634765625,0.1220703125,0.9599609375,1.64794921875,0.06103515625,1.77001953125,1742308736.4915392,61.4819450378418
1742308736,511469890,-0.03662109375,0.0927734375,1.00146484375,2.197265625,0.79345703125,1.5869140625,1742308736.5114698,61.50187563896179
1742308736,536490312,-0.11181640625,0.07763671875,1.05419921875,0.79345703125,-3.2958984375,3.84521484375,1742308736.5364902,61.52689599990845
1742308736,551463113,-0.01904296875,0.0556640625,0.92724609375,-0.6103515625,-2.86865234375,3.72314453125,1742308736.5514631,61.541868925094604
1742308736,571356744,-0.0458984375,0.11767578125,0.828125,0.732421875,-2.685546875,4.8828125,1742308736.5713568,61.56176257133484
1742308736,596549878,0.052734375,0.0947265625,0.9423828125,-0.42724609375,-0.79345703125,3.0517578125,1742308736.59655,61.58695578575134
1742308736,616194890,0.01904296875,0.0205078125,1.08203125,2.50244140625,3.60107421875,0.0,1742308736.616195,61.606600761413574
1742308736,636101482,-0.01708984375,0.07421875,1.01513671875,1.64794921875,3.662109375,0.42724609375,1742308736.6361015,61.62650728225708
1742308736,656203698,-0.0595703125,0.08203125,0.87841796875,-7.8125,6.7138671875,2.01416015625,1742308736.6562037,61.64660954475403
1742308736,676491811,-0.01318359375,0.0517578125,0.8818359375,-4.638671875,-4.45556640625,1.46484375,1742308736.6764917,61.6668975353241
1742308736,696558890,0.05029296875,0.142578125,0.85986328125,-1.3427734375,3.173828125,1.64794921875,1742308736.696559,61.68696475028992
1742308736,716600336,-0.05712890625,0.103515625,1.041015625,-2.685546875,1.28173828125,4.638671875,1742308736.7166004,61.707006216049194
1742308736,736509904,-0.05322265625,0.1015625,1.046875,-0.732421875,0.244140625,6.40869140625,1742308736.7365098,61.72691559791565
1742308736,756586295,-0.0146484375,0.130859375,1.05517578125,0.67138671875,3.72314453125,6.04248046875,1742308736.7565863,61.746992111206055
1742308736,776554906,-0.06103515625,0.03759765625,0.99267578125,-0.79345703125,-2.685546875,4.45556640625,1742308736.7765548,61.76696062088013
1742308736,796534429,-0.04736328125,0.01611328125,1.03076171875,0.91552734375,-2.8076171875,8.9111328125,1742308736.7965345,61.78694033622742
1742308736,816623429,-0.00439453125,0.07080078125,0.97412109375,-2.0751953125,3.41796875,12.939453125,1742308736.8166234,61.807029247283936
1742308736,836581127,-0.0751953125,0.05712890625,0.96044921875,-1.708984375,-0.732421875,14.892578125,1742308736.8365812,61.82698702812195
1742308736,856398114,-0.0400390625,0.080078125,1.00927734375,-2.197265625,-2.50244140625,17.15087890625,1742308736.856398,61.84680390357971
1742308736,876586639,0.06982421875,0.08984375,0.99365234375,2.685546875,3.662109375,15.5029296875,1742308736.8765867,61.866992473602295
1742308736,896340168,-0.01220703125,0.0732421875,0.99072265625,-0.30517578125,-0.6103515625,13.61083984375,1742308736.8963401,61.88674592971802
1742308736,916197221,-0.111328125,0.052734375,1.05810546875,1.28173828125,-2.62451171875,16.845703125,1742308736.9161973,61.90660309791565
1742308736,936187048,0.04052734375,0.0458984375,0.947265625,1.708984375,-6.89697265625,16.66259765625,1742308736.936187,61.92659282684326
1742308736,956351956,0.033203125,0.076171875,0.85546875,-1.3427734375,-0.42724609375,19.83642578125,1742308736.956352,61.946757793426514
1742308736,976244467,0.07373046875,0.10400390625,0.958984375,-0.1220703125,3.23486328125,19.6533203125,1742308736.9762444,61.96665024757385
1742308736,996270424,0.0693359375,0.091796875,0.9765625,-0.1220703125,3.5400390625,17.15087890625,1742308736.9962704,61.98667621612549
1742308737,16283443,-0.05029296875,0.08740234375,0.94921875,-0.91552734375,3.47900390625,18.12744140625,1742308737.0162835,62.00668931007385
1742308737,36308770,-0.044921875,0.076171875,0.9052734375,1.28173828125,-1.15966796875,21.8505859375,1742308737.0363088,62.02671456336975
1742308737,56210157,-0.00048828125,0.12353515625,0.9677734375,-0.1220703125,-1.64794921875,22.88818359375,1742308737.05621,62.04661583900452
1742308737,76363394,0.00048828125,0.03125,1.09326171875,-1.953125,1.953125,22.4609375,1742308737.0763633,62.06676912307739
1742308737,96537465,-0.06494140625,0.0283203125,1.00732421875,2.0751953125,4.08935546875,26.611328125,1742308737.0965374,62.08694314956665
1742308737,116181592,0.00341796875,0.05517578125,1.00732421875,2.9296875,2.3193359375,27.40478515625,1742308737.1161816,62.106587409973145
1742308737,136141189,0.015625,0.09912109375,0.82373046875,-2.74658203125,4.21142578125,28.01513671875,1742308737.1361413,62.12654709815979
1742308737,151470406,0.0205078125,0.16943359375,0.93603515625,-2.9296875,0.06103515625,27.587890625,1742308737.1514704,62.141876220703125
1742308737,176677369,-0.02001953125,0.13134765625,0.99462890625,-0.3662109375,-2.86865234375,28.38134765625,1742308737.1766775,62.16708326339722
1742308737,196382363,-0.01513671875,0.07470703125,0.9892578125,1.64794921875,-3.11279296875,32.71484375,1742308737.1963823,62.1867880821228
1742308737,216203298,0.05712890625,0.05615234375,1.0107421875,3.35693359375,6.9580078125,33.0810546875,1742308737.2162032,62.20660901069641
1742308737,231527139,0.025390625,0.12890625,0.85107421875,5.7373046875,-2.62451171875,33.63037109375,1742308737.231527,62.221932888031006
1742308737,256252002,0.08056640625,0.12744140625,0.94140625,-0.244140625,4.82177734375,33.50830078125,1742308737.256252,62.246657848358154
1742308737,276329620,0.0888671875,0.048828125,0.98046875,2.74658203125,2.197265625,31.67724609375,1742308737.2763295,62.266735315322876
1742308737,296358436,0.095703125,0.07080078125,0.986328125,3.60107421875,2.01416015625,30.82275390625,1742308737.2963583,62.28676414489746
1742308737,316498584,-0.05078125,0.0712890625,1.13818359375,8.23974609375,1.03759765625,32.28759765625,1742308737.3164985,62.306904315948486
1742308737,336310623,0.02099609375,0.0771484375,1.0732421875,6.77490234375,-0.67138671875,32.3486328125,1742308737.3363106,62.32671642303467
1742308737,356282380,0.0263671875,0.0537109375,0.8544921875,-4.57763671875,2.0751953125,32.04345703125,1742308737.3562825,62.34668827056885
1742308737,376753136,0.08203125,0.0869140625,0.89404296875,-3.60107421875,0.6103515625,31.67724609375,1742308737.376753,62.36715888977051
1742308737,396455441,0.01513671875,0.091796875,0.97021484375,0.79345703125,1.40380859375,33.203125,1742308737.3964555,62.3868613243103
1742308737,416333083,-0.02880859375,0.06201171875,1.13427734375,0.1220703125,1.89208984375,35.21728515625,1742308737.4163332,62.40673899650574
1742308737,436225957,0.06640625,0.0068359375,1.05615234375,1.15966796875,-1.220703125,35.58349609375,1742308737.436226,62.426631689071655
1742308737,456272853,-0.00146484375,0.0546875,1.029296875,1.28173828125,4.69970703125,35.7666015625,1742308737.4562728,62.44667863845825
1742308737,476505422,0.02490234375,0.08349609375,1.033203125,-1.77001953125,3.11279296875,35.70556640625,1742308737.4765055,62.46691131591797
1742308737,496347446,0.0146484375,0.064453125,0.8564453125,-2.197265625,4.69970703125,36.62109375,1742308737.4963474,62.48675322532654
1742308737,516301795,-0.033203125,0.0546875,0.92724609375,-1.5869140625,1.3427734375,39.1845703125,1742308737.5163019,62.50670766830444
1742308737,536290417,0.01318359375,0.11865234375,0.92626953125,-4.82177734375,-0.18310546875,41.32080078125,1742308737.5362904,62.52669620513916
1742308737,556641039,0.08642578125,0.1220703125,1.00390625,-0.42724609375,2.99072265625,41.80908203125,1742308737.556641,62.54704689979553
1742308737,576371794,0.0576171875,0.16650390625,0.84423828125,2.3193359375,-6.2255859375,41.50390625,1742308737.576372,62.56677770614624
1742308737,596513287,0.046875,0.0927734375,0.99072265625,1.15966796875,-0.8544921875,40.1611328125,1742308737.5965133,62.58691906929016
1742308737,616237001,0.07373046875,0.02392578125,1.07373046875,5.06591796875,5.79833984375,40.46630859375,1742308737.616237,62.606642723083496
1742308737,636500356,0.02490234375,0.0576171875,0.9609375,5.4931640625,0.42724609375,43.76220703125,1742308737.6365004,62.62690615653992
1742308737,656511635,0.10693359375,0.06494140625,1.03515625,0.67138671875,5.67626953125,41.80908203125,1742308737.6565115,62.64691734313965
1742308737,676662984,0.08984375,0.173828125,1.0400390625,6.53076171875,4.2724609375,39.9169921875,1742308737.676663,62.66706871986389
1742308737,696335272,-0.00439453125,0.16162109375,0.96826171875,-1.0986328125,2.3193359375,40.1611328125,1742308737.6963353,62.68674111366272
1742308737,716550048,-0.03515625,-0.02783203125,1.05615234375,-0.732421875,5.4931640625,42.78564453125,1742308737.71655,62.706955909729004
1742308737,736378408,-0.02734375,0.00634765625,1.03369140625,6.103515625,-5.37109375,44.43359375,1742308737.7363784,62.726784229278564
1742308737,751988373,0.0439453125,0.1767578125,0.978515625,0.18310546875,0.48828125,44.25048828125,1742308737.7519884,62.74239420890808
1742308737,776511403,0.09326171875,0.12548828125,1.02294921875,-3.72314453125,-3.7841796875,44.61669921875,1742308737.7765114,62.76691722869873
1742308737,796688577,0.08984375,0.05712890625,0.97265625,0.6103515625,8.30078125,45.7763671875,1742308737.7966886,62.78709435462952
1742308737,816915546,0.05419921875,0.09716796875,0.8046875,-0.54931640625,0.67138671875,44.00634765625,1742308737.8169155,62.807321310043335
1742308737,831852586,0.0361328125,0.08203125,0.96240234375,-4.69970703125,1.8310546875,41.68701171875,1742308737.8318527,62.82225847244263
1742308737,856309309,0.01220703125,0.02001953125,1.00732421875,-3.11279296875,2.86865234375,43.701171875,1742308737.8563094,62.846715211868286
1742308737,876650202,0.01171875,0.02197265625,0.888671875,-2.197265625,1.77001953125,47.2412109375,1742308737.87665,62.867055892944336
1742308737,896430559,0.0869140625,0.0859375,0.93603515625,1.5869140625,3.41796875,46.142578125,1742308737.8964305,62.8868362903595
1742308737,916363819,0.0302734375,0.125,0.96240234375,0.54931640625,-0.3662109375,44.5556640625,1742308737.9163637,62.90676951408386
1742308737,937676980,-0.00146484375,0.07666015625,1.1474609375,1.89208984375,1.0986328125,44.37255859375,1742308737.937677,62.92808270454407
1742308737,956515535,-0.01123046875,0.04345703125,1.12841796875,3.2958984375,0.244140625,44.61669921875,1742308737.9565156,62.94692134857178
1742308737,976521790,0.05078125,-0.02880859375,1.0087890625,0.79345703125,4.08935546875,42.3583984375,1742308737.9765217,62.96692752838135
1742308737,991665880,0.109375,-0.02294921875,1.1513671875,6.103515625,1.220703125,40.58837890625,1742308737.9916658,62.9820716381073
1742308738,11517979,-0.0009765625,0.083984375,1.1533203125,6.4697265625,5.0048828125,38.39111328125,1742308738.011518,63.00192379951477
1742308738,31440786,0.02099609375,0.10400390625,0.8857421875,-0.3662109375,7.2021484375,35.58349609375,1742308738.0314407,63.021846532821655
1742308738,51397450,-0.0263671875,0.16162109375,0.85205078125,-0.67138671875,0.244140625,36.19384765625,1742308738.0513976,63.04180335998535
1742308738,76570882,0.02734375,0.15185546875,0.9140625,0.6103515625,5.06591796875,36.92626953125,1742308738.076571,63.06697678565979
1742308738,96375572,0.009765625,0.0205078125,1.04345703125,-1.28173828125,0.30517578125,37.29248046875,1742308738.0963755,63.08678126335144
1742308738,116251401,0.0458984375,0.02685546875,0.9912109375,-1.15966796875,-2.62451171875,38.6962890625,1742308738.1162515,63.10665726661682
1742308738,136277444,0.12353515625,0.10009765625,1.07958984375,2.9296875,3.84521484375,44.0673828125,1742308738.1362774,63.12668323516846
1742308738,156219260,-0.02587890625,0.076171875,1.05126953125,5.0048828125,-0.42724609375,45.71533203125,1742308738.1562192,63.14662504196167
1742308738,176327386,-0.021484375,0.0439453125,0.953125,0.0,-2.25830078125,47.66845703125,1742308738.1763275,63.166733264923096
1742308738,196780712,0.02392578125,-0.03466796875,0.9482421875,-3.7841796875,3.60107421875,47.4853515625,1742308738.1967807,63.18718647956848
1742308738,216158983,0.037109375,0.03076171875,1.08544921875,-4.0283203125,1.64794921875,46.142578125,1742308738.2161589,63.2065646648407
1742308738,236185379,0.0517578125,0.06787109375,1.14013671875,2.25830078125,6.16455078125,44.25048828125,1742308738.2361853,63.22659111022949
1742308738,256306626,-0.09765625,0.1259765625,1.04296875,4.150390625,1.5869140625,39.9169921875,1742308738.2563066,63.24671244621277
1742308738,276326781,0.0087890625,-0.01806640625,1.00439453125,0.3662109375,-3.0517578125,37.109375,1742308738.276327,63.266732692718506
1742308738,296577858,0.0888671875,0.0146484375,1.0947265625,1.8310546875,7.9345703125,32.958984375,1742308738.296578,63.28698372840881
1742308738,316301680,-0.02197265625,0.0087890625,1.0732421875,4.7607421875,2.86865234375,29.541015625,1742308738.3163016,63.30670738220215
1742308738,336232327,-0.017578125,0.0576171875,0.9794921875,0.3662109375,-2.99072265625,29.35791015625,1742308738.3362324,63.32663822174072
1742308738,356252002,0.16650390625,0.09033203125,0.98046875,4.21142578125,2.5634765625,33.203125,1742308738.356252,63.34665775299072
1742308738,371425005,0.212890625,0.25390625,0.79638671875,2.9296875,5.43212890625,37.2314453125,1742308738.371425,63.361830711364746
1742308738,396334010,-0.00244140625,0.21240234375,0.84716796875,-7.62939453125,3.47900390625,38.02490234375,1742308738.396334,63.38673973083496
1742308738,416347252,-0.0400390625,0.060546875,0.99853515625,0.06103515625,-1.0986328125,38.6962890625,1742308738.4163473,63.406753063201904
1742308738,436234378,-0.015625,-0.029296875,0.916015625,4.5166015625,3.11279296875,39.1845703125,1742308738.4362345,63.4266402721405
1742308738,456317607,0.09619140625,0.18798828125,0.76904296875,0.79345703125,1.220703125,41.68701171875,1742308738.4563177,63.44672346115112
1742308738,476341347,0.0517578125,0.18798828125,1.048828125,-4.150390625,1.03759765625,44.5556640625,1742308738.4763412,63.46674704551697
1742308738,496396735,0.1201171875,0.13232421875,0.89404296875,4.08935546875,4.57763671875,44.3115234375,1742308738.4963968,63.48680257797241
1742308738,511377730,0.009765625,0.0830078125,0.77734375,-2.86865234375,5.859375,42.8466796875,1742308738.5113778,63.50178360939026
1742308738,531476512,-0.03759765625,-0.0224609375,1.0400390625,-2.685546875,1.3427734375,45.166015625,1742308738.5314765,63.52188229560852
1742308738,556493874,0.0009765625,0.0546875,0.9931640625,-0.732421875,0.244140625,47.05810546875,1742308738.5564938,63.54689955711365
1742308738,576670355,-0.05859375,0.06787109375,0.96484375,0.244140625,-6.53076171875,49.6826171875,1742308738.5766704,63.567076206207275
1742308738,591352361,0.130859375,0.06201171875,0.8349609375,-1.52587890625,-2.197265625,48.2177734375,1742308738.5913525,63.58175826072693
1742308738,616597092,0.14794921875,0.076171875,0.794921875,-5.06591796875,1.03759765625,46.38671875,1742308738.6165972,63.60700297355652
1742308738,636209358,0.09130859375,0.16796875,0.8505859375,-2.99072265625,0.54931640625,47.30224609375,1742308738.6362092,63.626615047454834
1742308738,656196455,0.1513671875,0.13427734375,1.0087890625,5.55419921875,4.08935546875,45.8984375,1742308738.6561964,63.646602153778076
1742308738,676321895,0.0234375,0.11669921875,0.9912109375,2.25830078125,1.15966796875,44.00634765625,1742308738.676322,63.666727781295776
1742308738,696450630,0.0771484375,0.08837890625,1.0849609375,2.99072265625,3.35693359375,43.3349609375,1742308738.6964507,63.686856508255005
1742308738,711348294,0.05126953125,0.09619140625,1.09228515625,5.06591796875,7.38525390625,42.29736328125,1742308738.7113483,63.701754093170166
1742308738,736227217,-0.0439453125,-0.005859375,0.97314453125,-0.1220703125,7.01904296875,40.4052734375,1742308738.7362273,63.726633071899414
1742308738,751781164,-0.0625,-0.0390625,1.09375,0.732421875,3.84521484375,37.353515625,1742308738.7517812,63.74218702316284
1742308738,776622038,-0.10302734375,0.01953125,1.1767578125,2.9296875,2.25830078125,37.2314453125,1742308738.776622,63.767027854919434
1742308738,796713588,0.03369140625,0.125,0.91748046875,-4.7607421875,-1.0986328125,37.04833984375,1742308738.7967136,63.78711938858032
1742308738,816285372,0.1259765625,0.17822265625,1.0810546875,-4.150390625,7.62939453125,35.09521484375,1742308738.8162854,63.80669116973877
1742308738,837019414,-0.00244140625,0.00830078125,1.14013671875,5.9814453125,4.0283203125,33.14208984375,1742308738.8370194,63.82742524147034
1742308738,856397749,-0.0166015625,0.0361328125,0.912109375,7.4462890625,6.04248046875,32.40966796875,1742308738.8563979,63.84680366516113
1742308738,876460338,-0.1220703125,0.09912109375,0.8193359375,-4.21142578125,-1.77001953125,30.45654296875,1742308738.8764603,63.86686611175537
1742308738,896625555,0.04345703125,0.142578125,0.9296875,-5.0048828125,3.41796875,28.076171875,1742308738.8966255,63.8870313167572
1742308738,916486855,-0.04931640625,0.12109375,1.02685546875,0.1220703125,2.13623046875,27.099609375,1742308738.9164867,63.90689253807068
1742308738,936301945,0.109375,0.0869140625,0.8984375,2.13623046875,1.46484375,26.2451171875,1742308738.936302,63.92670774459839
1742308738,956462554,0.0361328125,0.10546875,0.93212890625,0.3662109375,1.03759765625,23.74267578125,1742308738.9564626,63.94686841964722
1742308738,976496982,-0.013671875,0.0595703125,1.11328125,-0.732421875,2.99072265625,26.85546875,1742308738.976497,63.96690273284912
1742308738,996759867,-0.0947265625,0.0478515625,0.99658203125,4.0283203125,-7.26318359375,29.78515625,1742308738.99676,63.987165689468384
1742308739,16846095,0.0068359375,0.013671875,1.0380859375,3.0517578125,0.244140625,27.83203125,1742308739.0168462,64.00725197792053
1742308739,36723728,0.03173828125,-0.0400390625,1.0400390625,3.11279296875,0.42724609375,23.98681640625,1742308739.0367236,64.02712941169739
1742308739,53845342,0.08740234375,0.0908203125,1.11962890625,-1.5869140625,6.591796875,21.728515625,1742308739.0538454,64.04425120353699
1742308739,75443207,-0.0302734375,0.01513671875,0.92431640625,-1.220703125,4.0283203125,21.91162109375,1742308739.0754433,64.06584906578064
1742308739,96584253,-0.06494140625,0.056640625,0.7587890625,-4.69970703125,-1.5869140625,23.01025390625,1742308739.0965843,64.08699011802673
1742308739,116460030,0.09765625,0.08740234375,0.841796875,-7.62939453125,4.5166015625,20.99609375,1742308739.11646,64.10686588287354
1742308739,131446322,-0.01318359375,0.095703125,0.9169921875,-1.8310546875,2.685546875,21.3623046875,1742308739.1314464,64.12185215950012
1742308739,156494636,-0.01953125,0.16552734375,0.91259765625,-2.44140625,1.220703125,23.37646484375,1742308739.1564946,64.14690041542053
1742308739,176669401,0.0380859375,0.13330078125,0.86767578125,1.52587890625,4.7607421875,22.0947265625,1742308739.1766694,64.16707515716553
1742308739,196665599,0.04296875,0.08984375,0.7529296875,-6.591796875,-2.3193359375,21.17919921875,1742308739.1966655,64.18707132339478
1742308739,216606435,0.05810546875,0.119140625,0.79296875,-11.23046875,1.52587890625,20.3857421875,1742308739.2166064,64.20701217651367
1742308739,236431266,-0.0634765625,0.16064453125,0.9560546875,-5.2490234375,-6.89697265625,22.94921875,1742308739.2364314,64.22683715820312
1742308739,256716276,0.04150390625,0.1044921875,1.01611328125,7.62939453125,1.3427734375,23.4375,1742308739.2567163,64.24712204933167
1742308739,276429774,-0.0400390625,0.1103515625,0.9169921875,2.25830078125,-2.38037109375,24.23095703125,1742308739.27643,64.26683568954468
1742308739,296623005,0.01806640625,0.00927734375,1.0166015625,-2.0751953125,0.244140625,24.71923828125,1742308739.296623,64.28702878952026
1742308739,316600642,0.0859375,-0.0322265625,1.05078125,9.58251953125,1.28173828125,21.17919921875,1742308739.3166006,64.30700635910034
1742308739,336525349,0.02734375,0.1796875,0.85888671875,7.50732421875,3.2958984375,19.53125,1742308739.3365254,64.32693123817444
1742308739,356662193,-0.04150390625,0.0966796875,1.0234375,0.67138671875,-0.9765625,23.0712890625,1742308739.3566623,64.34706807136536
1742308739,377295729,-0.099609375,-0.0224609375,1.27294921875,11.8408203125,-3.96728515625,26.4892578125,1742308739.3772957,64.36770153045654
1742308739,396572569,0.05419921875,0.0947265625,1.14306640625,20.1416015625,2.44140625,24.7802734375,1742308739.3965726,64.38697838783264
1742308739,416528190,-0.04248046875,0.11083984375,0.95703125,2.3193359375,0.91552734375,24.47509765625,1742308739.4165282,64.40693402290344
1742308739,431383084,-0.021484375,0.0078125,1.0546875,-2.50244140625,6.40869140625,25.93994140625,1742308739.4313831,64.42178893089294
1742308739,456553515,-0.11669921875,-0.0458984375,1.01708984375,6.2255859375,-3.41796875,30.82275390625,1742308739.4565535,64.44695925712585
1742308739,476557969,0.09912109375,0.12109375,0.9072265625,5.92041015625,4.2724609375,31.3720703125,1742308739.476558,64.46696376800537
1742308739,496499701,0.11181640625,0.08935546875,1.00537109375,-4.21142578125,-0.244140625,30.09033203125,1742308739.4964998,64.48690557479858
1742308739,511602062,0.08642578125,-0.0078125,1.14208984375,0.1220703125,6.103515625,30.029296875,1742308739.5116022,64.5020079612732
1742308739,536458464,0.00390625,-0.00048828125,0.81201171875,4.0283203125,7.14111328125,31.43310546875,1742308739.5364585,64.52686429023743
1742308739,556436421,0.01171875,0.0693359375,0.8974609375,2.13623046875,5.0048828125,30.3955078125,1742308739.5564365,64.54684233665466
1742308739,576664053,-0.06982421875,0.1103515625,1.00146484375,1.15966796875,3.173828125,32.5927734375,1742308739.576664,64.56706976890564
1742308739,596652026,-0.134765625,0.0703125,1.0224609375,-1.28173828125,-8.36181640625,36.62109375,1742308739.596652,64.5870578289032
1742308739,616671361,0.07568359375,0.0625,0.9423828125,-3.23486328125,2.9296875,35.400390625,1742308739.6166713,64.60707712173462
1742308739,636511105,-0.00927734375,0.083984375,0.95849609375,4.45556640625,-4.8828125,33.14208984375,1742308739.636511,64.62691688537598
1742308739,656569578,0.046875,0.1259765625,0.888671875,4.57763671875,0.67138671875,32.3486328125,1742308739.6565695,64.64697527885437
1742308739,676713494,-0.07177734375,0.0791015625,0.9814453125,3.11279296875,-4.45556640625,36.80419921875,1742308739.6767135,64.66711926460266
1742308739,696582582,0.12060546875,0.10986328125,1.07861328125,3.0517578125,0.48828125,36.0107421875,1742308739.6965826,64.68698835372925
1742308739,716569212,-0.0087890625,0.05419921875,1.0419921875,4.94384765625,0.732421875,34.85107421875,1742308739.7165692,64.70697498321533
1742308739,736621956,0.10546875,0.07666015625,0.99951171875,0.244140625,2.197265625,35.09521484375,1742308739.7366219,64.72702765464783
1742308739,751722269,0.07177734375,0.119140625,1.03271484375,0.0,5.9814453125,37.4755859375,1742308739.7517223,64.7421281337738
1742308739,776514348,0.04443359375,0.10595703125,0.89111328125,-1.40380859375,1.03759765625,42.724609375,1742308739.7765143,64.76692008972168
1742308739,796383309,0.0048828125,0.0400390625,0.86669921875,-1.708984375,-3.173828125,42.6025390625,1742308739.7963834,64.78678917884827
1742308739,816432565,0.08935546875,0.07275390625,0.95947265625,-0.54931640625,5.67626953125,41.9921875,1742308739.8164325,64.80683827400208
1742308739,836417051,0.01025390625,0.072265625,0.8798828125,-8.056640625,-1.8310546875,45.0439453125,1742308739.836417,64.82682275772095
1742308739,856534182,0.11962890625,0.0498046875,1.09814453125,-2.62451171875,4.8828125,46.08154296875,1742308739.8565342,64.84694004058838
1742308739,876649553,-0.04931640625,0.1240234375,0.9453125,2.685546875,2.197265625,48.03466796875,1742308739.8766496,64.86705541610718
1742308739,896524242,0.07421875,0.13134765625,0.84716796875,-3.662109375,4.2724609375,45.7763671875,1742308739.8965242,64.88692998886108
1742308739,916618364,-0.00439453125,0.08349609375,0.8974609375,-5.2490234375,3.2958984375,47.54638671875,1742308739.9166183,64.90702414512634
1742308739,936584225,0.00390625,0.02099609375,0.92919921875,-3.90625,1.28173828125,49.49951171875,1742308739.9365842,64.92699003219604
1742308739,956351677,0.072265625,0.12060546875,0.95068359375,0.48828125,3.47900390625,49.9267578125,1742308739.9563518,64.94675755500793
1742308739,976529163,0.060546875,0.17431640625,1.0078125,1.40380859375,-1.15966796875,49.9267578125,1742308739.9765291,64.9669349193573
1742308739,996471342,0.021484375,0.08349609375,0.93212890625,3.72314453125,-0.6103515625,49.49951171875,1742308739.9964714,64.98687720298767
1742308740,16939231,0.06005859375,0.05712890625,0.78515625,-2.685546875,1.15966796875,49.49951171875,1742308740.0169392,65.00734496116638
1742308740,36690119,0.06884765625,0.013671875,0.857421875,-4.2724609375,1.5869140625,50.1708984375,1742308740.0366902,65.02709603309631
1742308740,56599959,0.09033203125,0.0625,1.0693359375,6.77490234375,-0.79345703125,48.03466796875,1742308740.0565999,65.04700565338135
1742308740,76552519,0.15771484375,0.2041015625,0.96533203125,8.9111328125,5.7373046875,46.2646484375,1742308740.0765526,65.0669584274292
1742308740,96748674,0.046875,0.17822265625,0.91748046875,-3.84521484375,8.056640625,49.01123046875,1742308740.0967486,65.08715438842773
1742308740,116657265,-0.02734375,0.056640625,0.93017578125,-4.5166015625,6.04248046875,52.001953125,1742308740.1166573,65.10706305503845
1742308740,136386457,-0.00048828125,0.0244140625,0.8876953125,-0.3662109375,-2.5634765625,53.5888671875,1742308740.1363864,65.1267921924591
1742308740,151579495,0.13330078125,0.146484375,1.14404296875,-1.708984375,8.23974609375,49.98779296875,1742308740.1515794,65.14198517799377
1742308740,176509188,0.0791015625,0.1015625,1.13916015625,-1.15966796875,2.62451171875,48.9501953125,1742308740.1765091,65.16691493988037
1742308740,196816803,0.0439453125,0.06201171875,1.12548828125,6.103515625,4.45556640625,56.0302734375,1742308740.196817,65.1872227191925
1742308740,216542155,0.029296875,0.1142578125,0.7666015625,-3.47900390625,-3.72314453125,61.767578125,1742308740.2165422,65.2069480419159
1742308740,236395000,0.10009765625,0.08447265625,0.78173828125,-10.009765625,4.82177734375,62.8662109375,1742308740.236395,65.22680068016052
1742308740,256509424,0.1396484375,0.08740234375,0.8154296875,-3.35693359375,-1.64794921875,64.5751953125,1742308740.2565095,65.24691534042358
1742308740,276496834,0.09033203125,0.17626953125,0.84033203125,0.54931640625,-0.06103515625,65.36865234375,1742308740.276497,65.2669026851654
1742308740,296366959,0.13037109375,0.1689453125,0.93505859375,-2.50244140625,0.6103515625,62.744140625,1742308740.296367,65.28677272796631
1742308740,316741106,0.09423828125,0.10791015625,0.9580078125,-0.6103515625,5.55419921875,59.9365234375,1742308740.316741,65.30714678764343
1742308740,336459961,0.05712890625,0.04541015625,0.9892578125,3.72314453125,5.4931640625,60.85205078125,1742308740.3364599,65.32686567306519
1742308740,356456044,0.015625,0.0087890625,1.05908203125,3.0517578125,-3.90625,63.3544921875,1742308740.356456,65.34686183929443
1742308740,376760587,0.09912109375,-0.0302734375,1.08984375,0.244140625,6.77490234375,63.29345703125,1742308740.3767605,65.36716628074646
