sec,nanosec,ax,ay,az,gx,gy,gz
1742308724,390705806,-0.005859375,0.09033203125,0.947265625,-0.48828125,2.13623046875,-0.6103515625
1742308724,415790914,-0.0498046875,0.15576171875,0.9921875,-0.54931640625,0.91552734375,-1.15966796875
1742308724,435583892,-0.05078125,0.10302734375,1.08544921875,10.3759765625,0.91552734375,-1.15966796875
1742308724,455582131,-0.04150390625,0.11962890625,0.935546875,2.38037109375,1.953125,0.244140625
1742308724,475658775,-0.02197265625,0.01025390625,0.923828125,-4.21142578125,6.2255859375,0.30517578125
1742308724,495516781,-0.07470703125,-0.02001953125,0.91796875,-0.79345703125,1.40380859375,0.48828125
1742308724,515753051,-0.07470703125,0.05712890625,0.96533203125,-0.244140625,-3.47900390625,2.25830078125
1742308724,535614546,0.025390625,0.1513671875,1.0263671875,-3.2958984375,2.01416015625,4.69970703125
1742308724,555567502,-0.03564453125,0.1044921875,0.9638671875,-3.96728515625,4.2724609375,5.4931640625
1742308724,575626192,-0.0341796875,0.08837890625,0.9755859375,-3.72314453125,-1.77001953125,5.859375
1742308724,595693684,-0.0068359375,0.0517578125,0.91162109375,-0.67138671875,1.46484375,7.2021484375
1742308724,615506055,-0.11572265625,0.07080078125,0.9111328125,-1.5869140625,-5.2490234375,9.765625
1742308724,635582603,-0.021484375,0.14208984375,0.9130859375,-1.8310546875,0.30517578125,10.8642578125
1742308724,655675984,-0.017578125,0.10693359375,0.998046875,-3.662109375,-3.0517578125,13.7939453125
1742308724,675760148,-0.0390625,0.03369140625,1.0537109375,-0.244140625,-2.0751953125,14.2822265625
1742308724,695652813,-0.02099609375,0.06005859375,1.03955078125,3.173828125,-0.91552734375,15.07568359375
1742308724,715515107,-0.0341796875,0.0546875,0.93798828125,-0.54931640625,-1.8310546875,19.47021484375
1742308724,735587463,0.06640625,0.03662109375,0.92919921875,-4.7607421875,-0.8544921875,22.3388671875
1742308724,755681644,0.0458984375,0.16943359375,0.92626953125,-4.150390625,2.62451171875,21.8505859375
1742308724,775700812,0.0322265625,0.07373046875,0.98779296875,-5.2490234375,-0.67138671875,18.5546875
1742308724,795579492,0.005859375,0.0703125,1.060546875,6.34765625,1.15966796875,16.2353515625
1742308724,815628774,-0.04443359375,0.0791015625,1.06640625,2.99072265625,4.08935546875,17.51708984375
1742308724,835639942,-0.03759765625,0.05615234375,0.99658203125,-1.28173828125,1.3427734375,18.85986328125
1742308724,855749419,-0.0419921875,0.01416015625,0.9306640625,0.06103515625,3.47900390625,20.99609375
1742308724,876050109,-0.01220703125,0.02685546875,0.91650390625,0.8544921875,-0.3662109375,21.728515625
1742308724,895751178,0.01220703125,0.08154296875,1.0576171875,-4.33349609375,3.662109375,20.751953125
1742308724,915617569,-0.03515625,0.04345703125,1.02734375,-1.77001953125,-3.2958984375,22.76611328125
1742308724,935824588,0.041015625,0.04541015625,0.953125,-1.8310546875,1.220703125,23.681640625
1742308724,955624287,-0.07177734375,0.1162109375,0.92578125,2.8076171875,-2.197265625,24.10888671875
1742308724,975583356,0.0224609375,0.09716796875,0.8671875,0.0,-2.25830078125,24.90234375
1742308724,995558618,-0.03466796875,0.0390625,0.9072265625,-4.21142578125,0.0,23.74267578125
1742308725,15477511,-0.05517578125,0.02294921875,1.12744140625,0.79345703125,-4.45556640625,29.60205078125
1742308725,35568652,-0.01806640625,0.0068359375,1.0908203125,2.86865234375,0.54931640625,32.53173828125
1742308725,56401149,0.07080078125,0.01611328125,0.90966796875,0.42724609375,-0.8544921875,30.1513671875
1742308725,75597518,0.0009765625,0.06884765625,0.9765625,0.42724609375,3.41796875,30.029296875
1742308725,95652113,-0.0048828125,0.0986328125,1.1103515625,4.45556640625,6.34765625,30.82275390625
1742308725,115575724,-0.11083984375,0.0634765625,0.94384765625,4.94384765625,-1.77001953125,33.935546875
1742308725,135645809,-0.01025390625,0.08642578125,0.95068359375,4.82177734375,-3.90625,34.48486328125
1742308725,155737878,0.15234375,0.07421875,1.037109375,6.16455078125,6.16455078125,32.1044921875
1742308725,175923297,0.07470703125,0.0732421875,0.998046875,-0.732421875,0.42724609375,31.67724609375
1742308725,195973284,-0.0927734375,0.0546875,0.982421875,-0.3662109375,4.08935546875,32.28759765625
1742308725,215665170,-0.0849609375,0.03564453125,0.91259765625,2.685546875,0.54931640625,35.82763671875
1742308725,235834076,0.0302734375,0.037109375,0.890625,-3.84521484375,-0.8544921875,37.109375
1742308725,255753911,0.037109375,0.05224609375,0.9501953125,-5.06591796875,1.8310546875,37.78076171875
1742308725,275771992,0.02001953125,0.1142578125,0.83203125,-5.06591796875,-1.3427734375,39.97802734375
1742308725,295916769,0.10400390625,0.130859375,0.93798828125,0.732421875,1.89208984375,37.109375
1742308725,315620079,0.03857421875,0.109375,0.83740234375,4.638671875,-3.41796875,34.912109375
1742308725,335582029,-0.025390625,0.16162109375,0.7626953125,-4.39453125,-1.77001953125,34.7900390625
1742308725,357069093,-0.00341796875,0.14208984375,0.958984375,-5.92041015625,-3.41796875,37.41455078125
1742308725,375885215,0.1044921875,0.09521484375,0.99560546875,1.52587890625,3.173828125,36.62109375
1742308725,395927905,-0.0029296875,0.07568359375,1.001953125,1.89208984375,2.44140625,38.02490234375
1742308725,415658065,-0.00634765625,0.1015625,1.0673828125,-0.9765625,-0.1220703125,41.3818359375
1742308725,435655249,0.03076171875,0.0703125,0.95849609375,0.0,1.708984375,41.32080078125
1742308725,450776689,0.09326171875,0.142578125,0.802734375,1.46484375,-1.3427734375,40.34423828125
1742308725,475961572,0.1240234375,0.1015625,0.970703125,0.42724609375,4.21142578125,36.9873046875
1742308725,495912129,-0.01953125,0.02783203125,1.16748046875,6.89697265625,7.50732421875,36.7431640625
1742308725,510712717,-0.04150390625,0.0908203125,1.1962890625,6.89697265625,3.0517578125,40.0390625
1742308725,535934114,-0.0126953125,0.05859375,1.00048828125,2.86865234375,1.28173828125,39.9169921875
1742308725,555775225,-0.05126953125,0.07568359375,0.85791015625,-2.13623046875,0.1220703125,41.19873046875
1742308725,570830708,0.013671875,0.08935546875,0.88232421875,-8.60595703125,-2.197265625,43.701171875
1742308725,590854549,0.1064453125,0.0400390625,1.0732421875,-3.41796875,4.39453125,43.27392578125
1742308725,615819259,0.072265625,0.04345703125,1.03857421875,1.28173828125,0.42724609375,42.78564453125
1742308725,635751895,0.02685546875,0.01123046875,1.1376953125,4.8828125,3.60107421875,43.27392578125
1742308725,655979301,-0.00048828125,0.03271484375,0.90380859375,1.28173828125,-1.8310546875,45.41015625
1742308725,675748087,0.060546875,0.1220703125,0.72265625,-2.197265625,1.8310546875,45.7763671875
1742308725,695613103,0.0322265625,0.14306640625,0.74169921875,-7.32421875,-3.84521484375,45.10498046875
1742308725,715739191,0.07177734375,0.09326171875,1.048828125,-3.2958984375,-0.3662109375,45.95947265625
1742308725,735722774,0.017578125,0.15185546875,0.9951171875,3.7841796875,0.91552734375,46.2646484375
1742308725,755704468,0.03271484375,0.1240234375,0.8916015625,1.03759765625,1.0986328125,46.20361328125
1742308725,776187985,0.052734375,0.07470703125,0.9765625,-2.38037109375,0.244140625,44.0673828125
1742308725,795695700,0.0341796875,0.0654296875,1.02978515625,0.18310546875,5.7373046875,41.80908203125
1742308725,815697108,-0.064453125,0.001953125,1.02294921875,-0.3662109375,-1.64794921875,41.68701171875
1742308725,835662290,0.1328125,0.05419921875,1.06201171875,2.01416015625,5.37109375,39.36767578125
1742308725,855943363,0.0185546875,0.00439453125,0.96923828125,-0.42724609375,3.23486328125,39.85595703125
1742308725,877299251,0.08203125,0.0859375,0.76953125,-0.6103515625,2.25830078125,37.41455078125
1742308725,895754008,0.09033203125,0.18359375,0.728515625,-3.47900390625,3.662109375,34.85107421875
1742308725,916093452,-0.06494140625,0.1015625,0.99462890625,-2.197265625,1.03759765625,34.24072265625
1742308725,935608271,-0.0654296875,0.07568359375,1.12451171875,2.86865234375,3.41796875,37.29248046875
1742308725,955790330,-0.03173828125,0.10595703125,0.9384765625,-1.15966796875,-2.01416015625,40.46630859375
1742308725,975836316,0.103515625,0.12109375,1.1181640625,3.662109375,-0.91552734375,41.19873046875
1742308725,990809395,0.0595703125,0.064453125,0.9267578125,5.18798828125,-0.06103515625,40.58837890625
1742308726,15723721,0.0458984375,0.03369140625,0.96142578125,-0.9765625,3.90625,42.17529296875
1742308726,35719850,-0.03955078125,0.0546875,1.01904296875,2.13623046875,-1.8310546875,45.22705078125
1742308726,55730669,-0.0361328125,0.10009765625,1.1787109375,6.40869140625,-1.46484375,46.875
1742308726,75725870,0.0703125,0.09423828125,1.1220703125,7.75146484375,1.40380859375,46.7529296875
1742308726,95723760,0.05126953125,0.0361328125,0.97265625,0.42724609375,3.84521484375,44.98291015625
1742308726,110882011,0.0791015625,0.0556640625,0.87744140625,-1.03759765625,7.568359375,43.0908203125
1742308726,136867382,0.0107421875,0.07568359375,0.89404296875,0.244140625,1.8310546875,40.22216796875
1742308726,155991557,0.00341796875,0.1474609375,0.927734375,2.74658203125,-2.50244140625,38.63525390625
1742308726,176150768,0.126953125,0.2646484375,0.85400390625,1.15966796875,6.53076171875,32.71484375
1742308726,195766044,0.013671875,0.09326171875,0.9541015625,-1.40380859375,0.91552734375,29.9072265625
1742308726,215645815,0.046875,0.02880859375,0.9775390625,0.9765625,1.89208984375,33.38623046875
1742308726,230847940,0.04345703125,0.0830078125,0.94921875,0.42724609375,4.21142578125,36.9873046875
1742308726,255960269,0.0029296875,0.10205078125,1.0341796875,2.5634765625,4.39453125,40.10009765625
1742308726,276114168,0.03076171875,0.14013671875,1.138671875,-2.62451171875,2.8076171875,40.6494140625
1742308726,296222848,-0.03515625,0.00927734375,1.08740234375,0.48828125,-0.06103515625,42.1142578125
1742308726,316161150,0.07373046875,-0.03515625,1.0615234375,8.11767578125,5.79833984375,42.96875
1742308726,335706246,-0.0244140625,0.06591796875,1.1142578125,3.23486328125,6.40869140625,43.212890625
1742308726,355824079,-0.0908203125,-0.04541015625,1.17431640625,7.99560546875,-4.0283203125,46.20361328125
1742308726,375817872,0.00634765625,0.0869140625,0.91162109375,-1.220703125,-0.30517578125,47.30224609375
1742308726,395776496,0.01220703125,0.0498046875,0.98486328125,-5.92041015625,-1.0986328125,47.18017578125
1742308726,415705006,0.10107421875,0.03857421875,1.0390625,4.33349609375,1.64794921875,44.0673828125
1742308726,435895098,0.12353515625,0.0830078125,0.87451171875,0.0,6.77490234375,41.80908203125
1742308726,455790646,0.00390625,0.13671875,0.9052734375,0.6103515625,2.38037109375,43.88427734375
1742308726,475800025,-0.009765625,0.1748046875,0.92529296875,-0.9765625,-0.732421875,47.05810546875
1742308726,495787002,0.02490234375,0.119140625,0.876953125,1.28173828125,-2.0751953125,47.9736328125
1742308726,515790364,0.19482421875,0.2001953125,0.88623046875,6.40869140625,7.8125,44.43359375
1742308726,535741243,0.13525390625,0.2041015625,0.93896484375,1.8310546875,5.7373046875,41.56494140625
1742308726,555813601,0.0263671875,0.1259765625,0.841796875,-2.01416015625,0.732421875,43.02978515625
1742308726,575896648,0.07568359375,0.08251953125,0.86328125,2.62451171875,2.13623046875,45.0439453125
1742308726,595921003,-0.05126953125,0.10205078125,0.923828125,-3.96728515625,3.173828125,44.3115234375
1742308726,615776229,0.04736328125,0.0732421875,1.13232421875,-4.7607421875,1.28173828125,41.80908203125
1742308726,635857771,0.04248046875,-0.00537109375,1.06103515625,1.708984375,3.35693359375,39.4287109375
1742308726,655788105,-0.00048828125,0.00048828125,1.021484375,5.615234375,5.92041015625,38.57421875
1742308726,670952596,0.00830078125,0.00634765625,1.025390625,0.18310546875,2.685546875,35.46142578125
1742308726,695703688,-0.06982421875,-0.03466796875,1.06201171875,-3.90625,1.89208984375,33.0810546875
1742308726,715705226,-0.01611328125,-0.0205078125,1.083984375,2.13623046875,0.244140625,30.1513671875
1742308726,735850676,-0.03955078125,0.0068359375,1.1162109375,4.21142578125,2.38037109375,27.40478515625
1742308726,755859319,-0.0087890625,0.037109375,1.1591796875,4.8828125,-3.35693359375,25.57373046875
1742308726,775952222,0.0029296875,0.10205078125,0.97265625,-3.11279296875,6.77490234375,23.86474609375
1742308726,795717650,-0.02783203125,0.0830078125,0.998046875,-4.8828125,1.5869140625,22.8271484375
1742308726,815795097,0.0654296875,0.1162109375,1.0048828125,1.89208984375,5.4931640625,22.64404296875
1742308726,836028680,-0.01416015625,0.099609375,0.9326171875,-0.79345703125,1.77001953125,21.91162109375
1742308726,855985831,0.05029296875,0.0458984375,1.03955078125,4.7607421875,7.75146484375,22.705078125
1742308726,870900996,-0.064453125,0.10546875,1.00927734375,0.06103515625,-1.0986328125,23.3154296875
1742308726,896090129,-0.0185546875,0.1318359375,1.01904296875,2.38037109375,1.3427734375,24.59716796875
1742308726,915972012,0.00390625,0.1572265625,0.79638671875,1.77001953125,-1.0986328125,24.59716796875
1742308726,935716704,0.04931640625,0.07861328125,0.84326171875,-6.04248046875,2.3193359375,24.59716796875
1742308726,955950447,0.08544921875,0.0400390625,1.03076171875,-2.01416015625,2.38037109375,23.0712890625
1742308726,975898254,0.0107421875,0.06005859375,0.96630859375,-4.21142578125,1.46484375,23.4375
1742308726,995946098,-0.02099609375,0.0078125,1.029296875,-3.84521484375,2.685546875,24.7802734375
1742308727,12227958,0.00537109375,-0.0166015625,0.90380859375,0.42724609375,3.96728515625,24.84130859375
1742308727,35975726,-0.0068359375,0.041015625,0.8740234375,-1.5869140625,-2.86865234375,24.169921875
1742308727,56202879,-0.0546875,0.1142578125,0.96142578125,-3.41796875,-0.91552734375,23.49853515625
1742308727,71074467,-0.087890625,0.07177734375,1.07763671875,-4.7607421875,-2.8076171875,27.03857421875
1742308727,95876022,-0.0126953125,0.0732421875,0.962890625,-2.9296875,-1.52587890625,27.34375
1742308727,115800887,0.0927734375,0.1767578125,0.93310546875,0.42724609375,1.64794921875,24.59716796875
1742308727,135739256,-0.060546875,0.14990234375,0.93994140625,3.60107421875,-1.5869140625,22.8271484375
1742308727,155812865,0.01171875,0.0732421875,0.9599609375,3.23486328125,-0.79345703125,27.34375
1742308727,175814982,-0.01025390625,0.05126953125,0.9658203125,1.220703125,-2.13623046875,28.38134765625
1742308727,195775336,0.11865234375,0.1025390625,0.962890625,7.080078125,2.9296875,24.59716796875
1742308727,215683592,0.03857421875,0.12255859375,0.9169921875,5.06591796875,0.1220703125,20.93505859375
1742308727,235850102,0.0048828125,0.03515625,0.9931640625,0.6103515625,7.38525390625,20.6298828125
1742308727,255897885,-0.03759765625,-0.00927734375,1.0029296875,11.1083984375,1.89208984375,22.64404296875
1742308727,275817181,-0.03662109375,0.23681640625,0.9150390625,8.60595703125,2.8076171875,25.08544921875
1742308727,295705948,0.02392578125,0.154296875,0.99267578125,-2.25830078125,1.46484375,29.47998046875
1742308727,315757091,-0.0009765625,0.02001953125,0.95361328125,2.3193359375,0.30517578125,32.28759765625
1742308727,335845133,0.06884765625,0.0615234375,0.89306640625,3.90625,1.3427734375,31.1279296875
1742308727,355867731,0.05908203125,0.07666015625,1.04248046875,5.55419921875,0.67138671875,33.87451171875
1742308727,376039746,-0.00732421875,0.056640625,0.9716796875,1.40380859375,1.89208984375,33.63037109375
1742308727,395768855,0.02587890625,-0.00537109375,0.9033203125,-1.52587890625,1.28173828125,33.0810546875
1742308727,415789789,-0.017578125,0.03173828125,0.947265625,-0.18310546875,2.9296875,31.92138671875
1742308727,435782689,0.02099609375,0.09765625,1.0966796875,5.92041015625,4.150390625,33.26416015625
1742308727,455969744,-0.076171875,0.1044921875,1.0615234375,6.591796875,-3.7841796875,34.72900390625
1742308727,476945068,0.0224609375,0.1181640625,1.08935546875,7.01904296875,-1.5869140625,34.5458984375
1742308727,496288300,-0.0107421875,0.07861328125,1.04052734375,5.0048828125,2.44140625,32.470703125
1742308727,516099814,0.00732421875,0.02685546875,0.94140625,3.41796875,2.197265625,33.99658203125
1742308727,535816699,-0.02880859375,0.05224609375,0.9599609375,-2.0751953125,5.31005859375,35.82763671875
1742308727,555949255,-0.03076171875,0.03955078125,1.10498046875,8.7890625,-11.3525390625,35.0341796875
1742308727,575896297,0.07666015625,0.21533203125,0.9580078125,4.33349609375,7.9345703125,31.6162109375
1742308727,596166653,0.04443359375,0.197265625,0.8037109375,-7.8125,-2.62451171875,34.24072265625
1742308727,615902866,0.0751953125,0.05126953125,0.90087890625,-6.9580078125,2.197265625,34.66796875
1742308727,635861493,0.01416015625,0.01953125,0.984375,-0.48828125,0.1220703125,37.04833984375
1742308727,656095911,0.115234375,0.013671875,1.00244140625,2.5634765625,6.103515625,39.4287109375
1742308727,676003270,0.05126953125,0.02880859375,0.94189453125,-2.38037109375,3.662109375,43.701171875
1742308727,691177308,0.02392578125,0.09521484375,1.1083984375,0.244140625,5.06591796875,48.33984375
1742308727,715868488,0.06494140625,0.14404296875,0.8798828125,-1.708984375,1.708984375,49.01123046875
1742308727,735995028,0.00537109375,0.0537109375,0.86669921875,-1.3427734375,-1.03759765625,49.560546875
1742308727,756113759,-0.0146484375,0.01025390625,0.9833984375,0.48828125,-1.77001953125,49.072265625
1742308727,776077122,0.01806640625,0.02734375,1.17626953125,3.96728515625,1.64794921875,49.8046875
1742308727,795880956,0.078125,0.10400390625,1.08056640625,1.77001953125,1.708984375,52.3681640625
1742308727,815836094,0.14501953125,0.07080078125,0.95703125,-2.74658203125,2.50244140625,51.3916015625
1742308727,835938888,0.11328125,0.0546875,0.92236328125,-1.64794921875,5.0048828125,49.13330078125
1742308727,856292673,0.068359375,0.076171875,1.017578125,-0.30517578125,6.9580078125,46.7529296875
1742308727,875885135,-0.0146484375,0.029296875,1.029296875,3.47900390625,-0.79345703125,48.15673828125
1742308727,895816944,0.1103515625,0.0771484375,0.8701171875,1.708984375,1.03759765625,47.54638671875
1742308727,915641291,0.1474609375,0.181640625,0.8525390625,-2.685546875,9.6435546875,45.10498046875
1742308727,935847867,0.0888671875,0.095703125,0.9443359375,0.244140625,4.7607421875,45.34912109375
1742308727,956098382,-0.01025390625,0.1064453125,0.97216796875,0.244140625,3.7841796875,50.84228515625
1742308727,976029359,-0.0859375,0.07763671875,1.12255859375,3.0517578125,0.54931640625,54.38232421875
1742308727,996041588,-0.017578125,0.01416015625,1.04931640625,-1.64794921875,-0.54931640625,53.7109375
1742308728,15743100,0.03173828125,0.017578125,1.068359375,-7.8125,1.89208984375,53.466796875
1742308728,35974417,0.0654296875,0.0234375,1.16748046875,3.35693359375,6.9580078125,50.96435546875
1742308728,56065854,0.0126953125,0.0771484375,0.96240234375,4.0283203125,2.62451171875,47.36328125
1742308728,75999363,-0.076171875,0.04052734375,0.95068359375,1.708984375,-0.9765625,49.560546875
1742308728,96041710,-0.00341796875,0.107421875,1.0234375,-4.08935546875,-6.103515625,57.9833984375
1742308728,115957874,0.02099609375,0.0625,1.2265625,1.28173828125,6.2255859375,63.3544921875
1742308728,135924440,0.0048828125,0.06005859375,1.0224609375,7.32421875,-4.5166015625,65.24658203125
1742308728,156373145,0.17138671875,0.087890625,0.86767578125,0.91552734375,2.25830078125,63.4765625
1742308728,175875110,0.140625,0.04345703125,1.00732421875,-2.50244140625,7.14111328125,60.85205078125
1742308728,195884751,0.04931640625,-0.0009765625,1.099609375,1.8310546875,5.9814453125,61.58447265625
1742308728,215784114,0.00146484375,-0.01318359375,0.9873046875,4.57763671875,-2.50244140625,61.82861328125
1742308728,235828029,0.11474609375,0.11572265625,1.01220703125,-3.96728515625,10.25390625,58.349609375
1742308728,255804676,0.0244140625,0.07177734375,1.07958984375,-3.173828125,5.43212890625,61.5234375
1742308728,275883921,0.0576171875,0.0908203125,0.931640625,-2.38037109375,-0.1220703125,63.17138671875
1742308728,295807541,0.0185546875,0.09228515625,0.9765625,-0.244140625,1.3427734375,61.95068359375
1742308728,315885570,0.0380859375,0.02880859375,1.2177734375,-0.18310546875,1.89208984375,62.744140625
1742308728,335914796,0.02197265625,0.00927734375,1.19287109375,1.15966796875,5.31005859375,63.41552734375
1742308728,355906836,0.10888671875,0.04443359375,1.1201171875,3.84521484375,8.85009765625,62.744140625
1742308728,376091591,0.05517578125,0.1005859375,0.91259765625,5.9814453125,3.96728515625,59.87548828125
1742308728,395929638,0.033203125,0.076171875,1.0693359375,1.8310546875,1.3427734375,57.9833984375
1742308728,415871052,-0.091796875,0.06591796875,1.1474609375,2.86865234375,-3.41796875,62.1337890625
1742308728,435928663,-0.00927734375,0.06201171875,1.04736328125,3.0517578125,2.74658203125,66.83349609375
1742308728,455969346,-0.00927734375,0.1103515625,1.02197265625,3.72314453125,-3.173828125,66.71142578125
1742308728,475795105,0.12841796875,0.01708984375,1.1513671875,5.2490234375,5.0048828125,62.1337890625
1742308728,495821451,0.03173828125,0.05224609375,1.12158203125,8.7890625,6.77490234375,60.11962890625
1742308728,515642281,0.02001953125,0.10400390625,0.89453125,-2.62451171875,2.74658203125,60.1806640625
1742308728,536127181,0.02783203125,0.0283203125,0.9296875,1.89208984375,1.28173828125,61.1572265625
1742308728,556158487,0.18212890625,0.09912109375,0.91650390625,4.638671875,7.62939453125,59.02099609375
1742308728,575872911,0.07177734375,0.10888671875,0.75732421875,-3.60107421875,0.06103515625,60.4248046875
1742308728,595875608,0.1025390625,0.138671875,0.71826171875,-5.18798828125,2.25830078125,62.31689453125
1742308728,615903810,0.08251953125,0.1328125,0.70654296875,-5.615234375,1.0986328125,62.1337890625
1742308728,636066067,0.04296875,0.10107421875,1.05126953125,0.244140625,3.23486328125,63.78173828125
1742308728,655994904,0.03564453125,0.08154296875,1.15283203125,1.64794921875,2.86865234375,61.5234375
1742308728,675969055,0.09765625,0.03369140625,1.2021484375,3.662109375,4.150390625,56.2744140625
1742308728,695983656,0.00927734375,0.01171875,1.11474609375,10.43701171875,8.1787109375,52.42919921875
1742308728,715932558,-0.08984375,0.0068359375,1.1494140625,6.591796875,2.13623046875,49.74365234375
1742308728,736231175,-0.05615234375,0.06005859375,1.09716796875,-4.8828125,4.69970703125,50.47607421875
1742308728,755987042,0.00537109375,0.01806640625,0.97705078125,-2.13623046875,-0.6103515625,51.33056640625
1742308728,775720604,0.06640625,-0.00732421875,0.89892578125,5.615234375,2.38037109375,47.119140625
1742308728,795755430,0.03369140625,0.03759765625,0.81591796875,2.25830078125,-3.41796875,43.3349609375
1742308728,815878613,0.1318359375,-0.00244140625,0.953125,-5.55419921875,3.2958984375,44.12841796875
1742308728,835943521,0.0263671875,0.05712890625,0.97509765625,-0.732421875,4.5166015625,42.8466796875
1742308728,856008749,-0.046875,0.0888671875,0.80810546875,2.38037109375,-4.45556640625,41.68701171875
1742308728,875710821,0.080078125,0.14208984375,0.80810546875,-2.685546875,0.42724609375,35.64453125
1742308728,895827540,0.140625,0.0751953125,0.9833984375,-3.60107421875,6.8359375,29.78515625
1742308728,915733400,0.02783203125,-0.0634765625,0.89501953125,1.3427734375,9.27734375,29.9072265625
1742308728,935899849,-0.03857421875,0.025390625,0.8232421875,-2.8076171875,3.84521484375,28.25927734375
1742308728,955988311,-0.04052734375,0.07421875,1.076171875,-3.72314453125,6.28662109375,28.01513671875
1742308728,975732881,-0.10400390625,0.0625,1.19921875,-0.3662109375,1.5869140625,25.81787109375
1742308728,995724249,-0.06201171875,0.119140625,0.986328125,3.41796875,-1.708984375,23.01025390625
1742308729,15636561,-0.06689453125,0.140625,1.0205078125,-1.28173828125,3.90625,22.216796875
1742308729,36082166,0.0400390625,0.0302734375,1.19091796875,0.67138671875,3.5400390625,17.4560546875
1742308729,55998558,-0.044921875,-0.01708984375,1.09765625,5.55419921875,-0.42724609375,16.54052734375
1742308729,75937640,-0.0625,0.02099609375,0.90771484375,2.44140625,-0.06103515625,18.4326171875
1742308729,95972503,-0.021484375,0.07763671875,0.88818359375,-2.38037109375,-3.11279296875,16.78466796875
1742308729,115987941,0.0439453125,0.01025390625,1.02978515625,-6.2255859375,-2.197265625,15.56396484375
1742308729,136042197,0.06591796875,-0.00927734375,1.00390625,1.220703125,0.06103515625,13.24462890625
1742308729,155837591,0.00244140625,0.13671875,0.90087890625,4.57763671875,0.0,9.521484375
1742308729,175800194,-0.01708984375,0.13427734375,0.9697265625,2.3193359375,2.38037109375,9.82666015625
1742308729,196194308,-0.10546875,0.09765625,0.95263671875,-1.28173828125,4.69970703125,10.55908203125
1742308729,216465280,-0.0830078125,0.06982421875,1.037109375,-2.5634765625,1.8310546875,12.6953125
1742308729,235947601,-0.0693359375,0.0859375,1.29296875,11.16943359375,0.8544921875,10.25390625
1742308729,256261679,0.09814453125,0.13916015625,0.982421875,12.939453125,-1.28173828125,5.37109375
1742308729,275885288,-0.05126953125,0.0576171875,0.87890625,-7.6904296875,8.72802734375,2.685546875
1742308729,295879605,-0.03369140625,-0.01953125,1.0166015625,-3.662109375,-0.244140625,2.01416015625
1742308729,315814110,-0.017578125,0.0166015625,0.9130859375,5.31005859375,3.23486328125,2.0751953125
1742308729,336441197,-0.06591796875,0.04931640625,0.91015625,-4.39453125,-4.57763671875,3.90625
1742308729,355999970,-0.0703125,-0.00927734375,1.01025390625,-2.8076171875,2.99072265625,4.69970703125
1742308729,375869321,-0.03955078125,0.123046875,1.08544921875,2.0751953125,1.8310546875,6.16455078125
1742308729,395918744,-0.0986328125,0.14306640625,0.97802734375,2.5634765625,-1.15966796875,4.150390625
1742308729,415882179,-0.06787109375,0.1171875,0.84423828125,-2.62451171875,1.0986328125,5.55419921875
1742308729,435988150,-0.05126953125,0.0478515625,1.0380859375,-1.52587890625,-2.197265625,5.79833984375
1742308729,455972322,0.0244140625,-0.03173828125,1.15966796875,2.3193359375,1.28173828125,4.45556640625
1742308729,475788966,-0.1279296875,0.04638671875,1.1142578125,2.62451171875,1.220703125,4.94384765625
1742308729,495898649,0.04736328125,0.06982421875,1.0283203125,-3.7841796875,-2.5634765625,6.53076171875
1742308729,515852963,0.0693359375,0.0830078125,0.9228515625,-1.89208984375,3.41796875,2.8076171875
1742308729,535895443,-0.0341796875,0.03515625,0.93212890625,-0.91552734375,-2.9296875,1.28173828125
1742308729,556011814,-0.033203125,0.05859375,0.85107421875,-0.732421875,0.0,2.62451171875
1742308729,575803912,0.01708984375,0.16552734375,0.84912109375,0.0,2.62451171875,2.197265625
1742308729,595711856,-0.0244140625,0.08984375,0.93896484375,-2.197265625,4.21142578125,2.50244140625
1742308729,615824451,-0.080078125,0.005859375,1.10546875,6.591796875,-3.84521484375,2.8076171875
1742308729,635963576,0.1005859375,0.13720703125,0.83544921875,0.3662109375,4.82177734375,-0.1220703125
1742308729,655849055,-0.02685546875,0.1201171875,0.81298828125,-9.09423828125,3.90625,-2.8076171875
1742308729,675843627,-0.06201171875,0.09716796875,0.9306640625,-5.37109375,0.8544921875,0.244140625
1742308729,695842776,-0.0634765625,0.0771484375,0.9736328125,2.197265625,-0.30517578125,3.11279296875
1742308729,715771714,-0.06494140625,0.11572265625,1.07373046875,2.0751953125,-2.0751953125,4.69970703125
1742308729,736091616,-0.00390625,-0.03857421875,1.22119140625,4.39453125,3.173828125,3.35693359375
1742308729,756132047,-0.07177734375,0.03271484375,1.125,5.67626953125,1.8310546875,2.5634765625
1742308729,775851949,-0.083984375,0.09033203125,0.9638671875,0.9765625,2.25830078125,4.08935546875
1742308729,795850266,-0.1279296875,0.0732421875,0.99365234375,-1.953125,-4.69970703125,6.65283203125
1742308729,815859912,-0.02099609375,-0.03125,1.072265625,2.685546875,1.0986328125,5.55419921875
1742308729,835934041,-0.095703125,0.03515625,1.08203125,-0.3662109375,-2.38037109375,5.79833984375
1742308729,855932774,0.01171875,0.03857421875,1.11376953125,0.0,3.35693359375,7.75146484375
1742308729,875992310,-0.02685546875,0.07958984375,0.95068359375,-3.90625,-0.6103515625,8.1787109375
1742308729,895836987,-0.01611328125,0.00830078125,0.95703125,0.42724609375,0.48828125,7.080078125
1742308729,915846536,-0.0478515625,0.05859375,0.8701171875,2.50244140625,-7.50732421875,7.87353515625
1742308729,935997406,0.08740234375,0.1328125,0.7998046875,0.30517578125,2.9296875,6.16455078125
1742308729,955983914,0.033203125,0.1171875,0.83837890625,-2.38037109375,7.26318359375,4.2724609375
1742308729,975838063,0.00390625,0.04150390625,1.00439453125,-2.01416015625,2.197265625,2.50244140625
1742308729,995750168,-0.10498046875,0.07861328125,1.04150390625,8.48388671875,-3.0517578125,5.9814453125
1742308730,15801052,-0.02978515625,0.1640625,0.837890625,-0.18310546875,0.3662109375,8.97216796875
1742308730,36926377,-0.00634765625,0.06591796875,0.89892578125,-6.103515625,-1.708984375,5.92041015625
1742308730,56082415,0.0,-0.00537109375,0.97119140625,-1.46484375,-1.8310546875,5.126953125
1742308730,75942715,0.04833984375,0.02197265625,0.8837890625,-0.6103515625,2.5634765625,5.37109375
1742308730,95889739,-0.03759765625,0.12548828125,0.943359375,-7.8125,0.79345703125,6.28662109375
1742308730,116195533,-0.08837890625,0.06005859375,1.22216796875,3.35693359375,3.90625,7.14111328125
1742308730,131175162,-0.0712890625,0.07177734375,1.01611328125,11.23046875,0.42724609375,8.544921875
1742308730,156062315,-0.0517578125,0.04736328125,0.83984375,0.79345703125,-4.39453125,9.94873046875
1742308730,176188004,0.03466796875,-0.04296875,0.94677734375,-3.84521484375,-0.732421875,7.26318359375
1742308730,195940490,-0.0546875,0.0712890625,0.99853515625,0.06103515625,-3.90625,7.26318359375
1742308730,215973854,0.03515625,0.1416015625,1.05810546875,-2.0751953125,2.38037109375,8.11767578125
1742308730,236129305,-0.00048828125,0.078125,1.015625,0.18310546875,2.74658203125,8.6669921875
1742308730,256271731,0.00390625,0.13671875,0.92333984375,4.57763671875,1.40380859375,6.8359375
1742308730,276019160,-0.02978515625,0.11083984375,0.88427734375,1.5869140625,-5.4931640625,5.0048828125
1742308730,296197012,-0.0478515625,0.0546875,1.07470703125,1.28173828125,3.5400390625,4.7607421875
1742308730,316176838,-0.01611328125,0.08154296875,1.00048828125,0.244140625,1.708984375,6.16455078125
1742308730,336239451,0.0498046875,0.04736328125,0.99609375,2.5634765625,3.96728515625,3.662109375
1742308730,351105666,-0.07666015625,0.0908203125,0.87744140625,6.53076171875,-1.953125,0.91552734375
1742308730,376023125,-0.03466796875,0.162109375,0.8408203125,0.0,0.8544921875,1.64794921875
1742308730,395878912,-0.10888671875,0.11083984375,1.017578125,-6.7138671875,-1.220703125,5.43212890625
1742308730,415954359,-0.0400390625,0.0595703125,1.0419921875,-5.126953125,-0.48828125,5.06591796875
1742308730,435928840,0.04150390625,0.06640625,0.998046875,1.03759765625,1.77001953125,4.57763671875
1742308730,455923674,0.0283203125,0.0859375,0.83837890625,-0.06103515625,5.615234375,2.197265625
1742308730,475871082,-0.03076171875,0.17724609375,1.04443359375,-2.62451171875,4.150390625,2.62451171875
1742308730,491289550,-0.1591796875,0.0966796875,1.1279296875,2.197265625,2.9296875,5.31005859375
1742308730,511116631,-0.08447265625,0.05029296875,0.94384765625,3.47900390625,-5.92041015625,7.01904296875
1742308730,536400125,-0.01953125,0.06298828125,0.84326171875,-3.7841796875,0.1220703125,4.5166015625
1742308730,551108636,-0.05224609375,0.02685546875,0.96533203125,-4.69970703125,-4.8828125,2.01416015625
1742308730,571031819,-0.0927734375,0.04345703125,1.0810546875,2.25830078125,-1.28173828125,3.47900390625
1742308730,596132871,-0.0537109375,0.06689453125,1.080078125,-1.5869140625,-0.18310546875,4.94384765625
1742308730,615939663,-0.0283203125,-0.0009765625,1.052734375,-0.9765625,-0.54931640625,2.0751953125
1742308730,631408214,-0.0419921875,0.05078125,0.91015625,0.3662109375,-1.708984375,0.91552734375
1742308730,656478929,-0.048828125,0.11572265625,0.9052734375,0.91552734375,0.1220703125,1.28173828125
1742308730,675934407,-0.00830078125,0.099609375,1.0322265625,0.9765625,-3.60107421875,0.91552734375
1742308730,695905208,-0.0126953125,0.1279296875,1.0478515625,0.6103515625,6.7138671875,2.74658203125
1742308730,715912587,-0.048828125,0.03955078125,0.94091796875,4.150390625,2.44140625,0.67138671875
1742308730,736087334,0.00439453125,0.05859375,0.89111328125,0.244140625,-1.77001953125,0.42724609375
1742308730,755977235,-0.1640625,0.064453125,1.056640625,-0.8544921875,2.74658203125,3.41796875
1742308730,775895010,-0.0380859375,0.0615234375,0.96630859375,-0.732421875,-2.01416015625,5.615234375
1742308730,795933910,0.02099609375,0.08740234375,0.95947265625,-1.28173828125,-0.8544921875,5.615234375
1742308730,816030062,-0.0048828125,0.03369140625,0.92626953125,-1.5869140625,2.99072265625,5.67626953125
1742308730,836995955,-0.03857421875,0.0927734375,0.95458984375,-0.48828125,4.638671875,6.4697265625
1742308730,857125868,-0.02392578125,0.078125,1.09326171875,3.5400390625,-2.62451171875,5.4931640625
1742308730,875974722,-0.10888671875,0.10205078125,0.9609375,3.5400390625,-2.38037109375,12.0849609375
1742308730,896007831,-0.0517578125,0.0849609375,0.8994140625,0.42724609375,-6.77490234375,21.240234375
1742308730,916003913,0.052734375,0.0576171875,0.90283203125,-1.220703125,-1.64794921875,24.10888671875
1742308730,936468692,0.03369140625,0.05419921875,1.0068359375,0.54931640625,0.30517578125,26.3671875
1742308730,956297533,0.00390625,0.03173828125,1.12255859375,3.173828125,-6.7138671875,34.3017578125
1742308730,976000481,0.07763671875,0.0302734375,1.001953125,2.62451171875,0.3662109375,39.36767578125
1742308730,996018644,0.0908203125,0.1494140625,0.8505859375,-1.40380859375,3.47900390625,39.97802734375
1742308731,15922294,0.0126953125,0.138671875,0.91943359375,-3.60107421875,1.40380859375,41.19873046875
1742308731,36778394,0.0302734375,0.09228515625,1.01220703125,0.8544921875,3.5400390625,44.3115234375
1742308731,51194263,0.0283203125,0.09033203125,1.0380859375,3.11279296875,1.52587890625,43.5791015625
1742308731,76017446,0.04736328125,0.05029296875,0.884765625,1.5869140625,-0.6103515625,41.80908203125
1742308731,95880983,0.08642578125,0.09033203125,0.7861328125,-2.99072265625,7.50732421875,40.1611328125
1742308731,115999062,0.072265625,0.10888671875,0.82861328125,-3.0517578125,2.685546875,41.07666015625
1742308731,135972334,-0.03955078125,0.1181640625,0.98193359375,-1.0986328125,-1.220703125,43.5791015625
1742308731,155951270,0.0068359375,0.1337890625,1.07861328125,3.47900390625,2.13623046875,45.2880859375
1742308731,176402549,-0.03759765625,0.07568359375,0.9482421875,-2.13623046875,-2.9296875,46.32568359375
1742308731,195905269,0.083984375,0.02880859375,1.0029296875,-0.3662109375,5.37109375,44.7998046875
1742308731,215969457,0.10595703125,0.052734375,0.84814453125,2.86865234375,2.9296875,41.259765625
1742308731,235946569,-0.01611328125,0.1240234375,0.83935546875,1.953125,2.13623046875,41.3818359375
1742308731,255935553,-0.05615234375,0.12939453125,0.97998046875,-1.708984375,-2.8076171875,43.0908203125
1742308731,275997149,0.02099609375,0.02685546875,1.1865234375,-0.91552734375,3.47900390625,43.51806640625
1742308731,295963188,-0.12158203125,0.06005859375,1.197265625,10.07080078125,1.708984375,44.98291015625
1742308731,316267452,0.01806640625,0.03173828125,1.01513671875,10.1318359375,-1.77001953125,44.86083984375
1742308731,335990407,0.0068359375,0.021484375,0.8671875,0.732421875,-0.9765625,42.17529296875
1742308731,356046819,0.13720703125,0.06494140625,1.0390625,-0.18310546875,4.82177734375,38.4521484375
1742308731,375907509,0.01611328125,0.1103515625,1.03271484375,1.8310546875,5.06591796875,37.53662109375
1742308731,395889645,-0.00146484375,0.08251953125,1.03662109375,-0.42724609375,2.25830078125,39.36767578125
1742308731,416003179,0.06787109375,-0.00244140625,0.97998046875,3.7841796875,1.52587890625,37.2314453125
1742308731,436043238,0.0810546875,0.064453125,0.775390625,1.77001953125,4.45556640625,33.935546875
1742308731,456022686,0.0068359375,0.1083984375,0.85400390625,-5.55419921875,1.5869140625,30.57861328125
1742308731,475979029,-0.064453125,0.07470703125,1.103515625,-5.43212890625,3.0517578125,30.94482421875
1742308731,496043281,-0.04345703125,0.0498046875,1.06103515625,0.06103515625,-1.89208984375,34.24072265625
1742308731,516035625,0.0302734375,0.10302734375,0.83251953125,-1.15966796875,3.2958984375,33.0810546875
1742308731,535985728,0.12744140625,0.08154296875,0.95458984375,-2.01416015625,6.9580078125,31.25
1742308731,555925397,-0.044921875,0.1552734375,0.857421875,2.197265625,-1.64794921875,31.55517578125
1742308731,575998642,0.03759765625,0.2509765625,0.8173828125,-2.74658203125,0.79345703125,31.25
1742308731,596003979,0.04248046875,0.1435546875,0.95751953125,-3.7841796875,-2.74658203125,29.60205078125
1742308731,616140747,0.04345703125,0.037109375,0.92041015625,1.03759765625,0.1220703125,28.564453125
1742308731,635991260,0.00146484375,-0.0146484375,0.9443359375,3.72314453125,1.220703125,28.3203125
1742308731,655965396,0.0517578125,0.0361328125,0.9609375,-2.9296875,0.42724609375,29.60205078125
1742308731,676161719,0.1103515625,0.01025390625,1.12353515625,0.54931640625,5.2490234375,29.052734375
1742308731,696180464,-0.03515625,0.1015625,1.02685546875,6.04248046875,0.9765625,27.77099609375
1742308731,716252717,0.02685546875,0.1416015625,1.00634765625,-2.74658203125,1.28173828125,31.25
1742308731,736182018,0.06298828125,0.10791015625,0.97021484375,-0.67138671875,2.5634765625,30.09033203125
1742308731,751884416,-0.02294921875,0.16796875,0.89111328125,1.953125,-4.150390625,27.83203125
1742308731,776207221,0.0498046875,0.1572265625,0.9345703125,1.77001953125,-1.40380859375,24.90234375
1742308731,795998115,0.04443359375,0.078125,0.93896484375,-3.662109375,5.126953125,25.32958984375
1742308731,816148900,0.02490234375,0.021484375,0.92138671875,-4.21142578125,2.86865234375,27.2216796875
1742308731,836149245,0.01953125,0.02734375,0.88916015625,-2.74658203125,0.54931640625,26.85546875
1742308731,855984589,-0.001953125,0.00634765625,1.04345703125,-0.30517578125,-1.52587890625,25.57373046875
1742308731,876040585,0.0888671875,0.0224609375,0.9755859375,-3.173828125,1.89208984375,24.84130859375
1742308731,896062691,-0.05126953125,0.06494140625,0.95751953125,1.89208984375,4.2724609375,25.81787109375
1742308731,916103582,-0.0576171875,0.12841796875,0.86474609375,1.15966796875,-1.220703125,27.2216796875
1742308731,936204028,0.04443359375,0.0546875,1.029296875,-4.5166015625,2.62451171875,26.3671875
1742308731,956160146,-0.10595703125,0.0400390625,1.1865234375,5.0048828125,-2.38037109375,27.2216796875
1742308731,976075623,-0.0224609375,0.0673828125,1.0927734375,4.7607421875,1.52587890625,25.87890625
1742308731,996009180,-0.02392578125,0.08203125,0.9775390625,-4.150390625,-0.3662109375,26.4892578125
1742308732,16097358,0.02392578125,0.01904296875,1.04541015625,0.48828125,-0.30517578125,26.3671875
1742308732,36195955,0.037109375,0.05517578125,0.85107421875,4.7607421875,1.3427734375,22.4609375
1742308732,55986857,0.07177734375,0.06640625,0.88037109375,0.30517578125,3.173828125,20.263671875
1742308732,75997993,0.01611328125,0.00830078125,0.9951171875,-4.82177734375,4.08935546875,21.728515625
1742308732,96039563,-0.03466796875,0.00048828125,1.04931640625,3.84521484375,2.8076171875,21.66748046875
1742308732,116120655,-0.00537109375,0.16943359375,0.87548828125,4.638671875,-1.64794921875,21.97265625
1742308732,136032939,0.033203125,0.20751953125,0.8505859375,-2.44140625,1.15966796875,21.3623046875
1742308732,155991401,-0.0546875,0.0771484375,0.9794921875,-5.126953125,-1.3427734375,22.76611328125
1742308732,176045068,-0.009765625,0.03662109375,1.044921875,-0.244140625,-0.48828125,23.13232421875
1742308732,195915013,-0.00244140625,-0.02685546875,1.111328125,-0.6103515625,3.35693359375,22.0947265625
1742308732,216081869,0.06689453125,0.04248046875,0.984375,-2.38037109375,-0.54931640625,23.25439453125
1742308732,236024170,0.05908203125,0.0458984375,1.1513671875,1.708984375,2.3193359375,26.0009765625
1742308732,255929094,0.01416015625,0.08740234375,0.9658203125,1.953125,-1.40380859375,31.06689453125
1742308732,275917701,0.138671875,0.20947265625,0.86669921875,-1.15966796875,0.3662109375,39.9169921875
1742308732,295948775,-0.02587890625,0.13623046875,0.994140625,-2.99072265625,1.5869140625,52.30712890625
1742308732,316057612,0.107421875,0.00634765625,1.02490234375,2.44140625,0.91552734375,58.2275390625
1742308732,336096846,0.08251953125,0.06005859375,0.96044921875,3.0517578125,-0.3662109375,61.09619140625
1742308732,356052044,0.154296875,0.06201171875,0.9541015625,-0.30517578125,1.89208984375,62.92724609375
1742308732,376133392,0.0869140625,0.1767578125,0.96337890625,4.69970703125,6.103515625,62.56103515625
1742308732,396033707,0.00537109375,0.21728515625,0.826171875,-3.2958984375,2.5634765625,64.208984375
1742308732,417103328,0.02685546875,0.05712890625,0.89306640625,-5.37109375,1.46484375,65.673828125
1742308732,436220628,0.15966796875,0.10546875,1.01025390625,11.77978515625,5.859375,62.98828125
1742308732,455970919,0.029296875,0.1865234375,0.87841796875,11.65771484375,1.52587890625,58.41064453125
1742308732,476119631,0.13330078125,0.1640625,0.87841796875,-3.47900390625,7.87353515625,55.72509765625
1742308732,496059276,0.07177734375,0.05126953125,0.873046875,-2.99072265625,4.45556640625,61.70654296875
1742308732,516642249,-0.029296875,-0.021484375,0.99853515625,2.38037109375,3.72314453125,65.3076171875
1742308732,536121871,-0.033203125,0.06591796875,0.94677734375,4.150390625,-4.45556640625,67.2607421875
1742308732,556168593,0.19189453125,0.1435546875,0.8759765625,7.080078125,-1.77001953125,66.7724609375
1742308732,576056875,0.11328125,0.203125,0.8310546875,-0.48828125,9.09423828125,60.9130859375
1742308732,596290935,0.162109375,0.24072265625,0.85302734375,-0.6103515625,4.82177734375,62.80517578125
1742308732,616156208,-0.04736328125,0.15966796875,0.92138671875,1.40380859375,0.79345703125,62.744140625
1742308732,636369787,0.0947265625,0.033203125,1.02392578125,4.7607421875,4.21142578125,60.60791015625
1742308732,656175569,0.01416015625,0.06396484375,0.97021484375,4.150390625,6.65283203125,56.33544921875
1742308732,676146800,0.07666015625,0.0693359375,1.09033203125,2.01416015625,2.25830078125,52.3681640625
1742308732,696132527,0.05517578125,0.06640625,0.95361328125,3.72314453125,1.5869140625,50.47607421875
1742308732,716183025,0.04248046875,0.02880859375,1.041015625,4.94384765625,2.8076171875,48.33984375
1742308732,736600134,0.021484375,-0.04833984375,1.04736328125,5.55419921875,9.765625,43.5791015625
1742308732,756061195,0.01513671875,0.05029296875,0.994140625,0.42724609375,9.70458984375,40.71044921875
1742308732,776193458,-0.03759765625,-0.00634765625,1.0478515625,1.52587890625,1.0986328125,38.26904296875
1742308732,796251381,0.04736328125,0.0478515625,0.96142578125,1.03759765625,5.06591796875,36.62109375
1742308732,817337962,-0.0234375,0.0859375,1.04248046875,-3.0517578125,2.44140625,36.9873046875
1742308732,836190930,-0.03662109375,0.130859375,0.91650390625,-6.77490234375,-0.1220703125,34.66796875
1742308732,856856114,-0.05615234375,0.05126953125,0.90478515625,-4.21142578125,-1.8310546875,30.6396484375
1742308732,876128302,-0.02685546875,0.0703125,0.87890625,0.244140625,-2.9296875,28.564453125
1742308732,896340281,0.15869140625,0.05908203125,1.0654296875,0.18310546875,10.009765625,25.20751953125
1742308732,916117998,-0.00244140625,0.1494140625,0.94482421875,0.79345703125,7.50732421875,23.01025390625
1742308732,936082188,-0.09033203125,0.22314453125,0.822265625,-7.75146484375,-4.638671875,22.94921875
1742308732,956018665,-0.0546875,0.08349609375,0.9052734375,-2.197265625,-5.18798828125,22.76611328125
1742308732,976161648,-0.0048828125,0.0498046875,0.875,2.38037109375,-4.150390625,22.94921875
1742308732,991485800,0.07470703125,0.056640625,0.958984375,-2.38037109375,-1.64794921875,21.484375
1742308733,11385246,0.0322265625,0.06689453125,1.03125,1.0986328125,0.79345703125,21.8505859375
1742308733,36117898,0.0029296875,0.07763671875,1.02880859375,2.74658203125,1.8310546875,23.13232421875
1742308733,56037550,-0.02197265625,0.08056640625,0.96484375,0.30517578125,2.50244140625,24.169921875
1742308733,76005141,-0.0224609375,0.10009765625,0.935546875,-4.94384765625,0.91552734375,23.25439453125
1742308733,96054687,0.10107421875,0.095703125,0.94287109375,-1.8310546875,2.9296875,22.0947265625
1742308733,116105481,-0.00146484375,0.1650390625,0.99658203125,2.62451171875,2.01416015625,22.0947265625
1742308733,136141971,0.0283203125,0.1240234375,0.96435546875,11.53564453125,1.28173828125,22.94921875
1742308733,156400295,0.01416015625,0.185546875,0.771484375,-1.52587890625,7.8125,21.54541015625
1742308733,176187461,0.03564453125,0.0517578125,0.95166015625,-7.01904296875,6.77490234375,23.5595703125
1742308733,196260240,-0.06982421875,-0.0419921875,1.0107421875,-0.54931640625,-5.43212890625,26.18408203125
1742308733,216159379,-0.08837890625,0.0654296875,0.88916015625,0.244140625,-9.521484375,29.6630859375
1742308733,236255552,0.14990234375,0.1015625,1.0,-2.9296875,0.48828125,26.611328125
1742308733,256124673,0.0693359375,0.09228515625,1.0087890625,5.7373046875,6.28662109375,20.32470703125
1742308733,275984418,-0.04296875,0.17041015625,0.8515625,-1.28173828125,6.2255859375,20.69091796875
1742308733,296041933,-0.08154296875,0.072265625,1.01220703125,-7.6904296875,5.31005859375,24.59716796875
1742308733,316241214,-0.0966796875,0.05517578125,1.2265625,7.568359375,-0.8544921875,28.13720703125
1742308733,335981657,-0.02197265625,0.08642578125,1.1220703125,6.65283203125,-3.662109375,28.01513671875
1742308733,356007651,-0.017578125,0.05859375,0.95166015625,-3.35693359375,-2.0751953125,26.2451171875
1742308733,376058669,0.06591796875,0.06201171875,0.9951171875,-5.37109375,1.64794921875,22.27783203125
1742308733,396119096,0.02587890625,0.1728515625,1.00341796875,4.0283203125,-1.15966796875,18.4326171875
1742308733,416203844,0.03076171875,0.17529296875,0.97119140625,0.54931640625,-0.30517578125,17.333984375
1742308733,436157097,-0.03076171875,0.08935546875,0.921875,-4.69970703125,5.79833984375,17.7001953125
1742308733,456071245,0.01123046875,0.02587890625,1.0751953125,-2.685546875,3.11279296875,18.00537109375
1742308733,476087414,-0.02734375,0.03369140625,1.080078125,6.16455078125,-1.15966796875,18.4326171875
1742308733,496104638,0.07177734375,0.064453125,0.9052734375,4.0283203125,0.48828125,16.7236328125
1742308733,516050979,-0.0224609375,0.046875,1.0126953125,-4.57763671875,4.39453125,14.22119140625
1742308733,536375259,-0.10546875,-0.03369140625,1.06103515625,-0.3662109375,3.96728515625,15.93017578125
1742308733,556033394,-0.0771484375,0.046875,1.02734375,0.79345703125,-0.244140625,18.73779296875
1742308733,576106558,-0.05859375,0.1005859375,1.013671875,-5.67626953125,-3.41796875,19.47021484375
1742308733,596100741,-0.0419921875,0.0634765625,1.2265625,3.5400390625,-0.8544921875,20.44677734375
1742308733,616206962,-0.01171875,0.056640625,1.0966796875,6.65283203125,-0.06103515625,18.5546875
1742308733,636188377,-0.01806640625,0.052734375,0.892578125,-4.150390625,2.99072265625,18.9208984375
1742308733,656182337,-0.06787109375,0.06396484375,0.89453125,-5.43212890625,3.60107421875,19.95849609375
1742308733,676104741,-0.01025390625,0.05810546875,0.97509765625,-1.40380859375,-2.86865234375,21.484375
1742308733,696174928,-0.00341796875,0.10888671875,1.1181640625,7.8125,2.44140625,19.95849609375
1742308733,716392226,-0.05810546875,0.10107421875,1.10302734375,9.33837890625,0.91552734375,19.10400390625
1742308733,736279045,-0.02685546875,0.0654296875,1.0166015625,3.173828125,-4.2724609375,21.8505859375
1742308733,756112869,0.0458984375,0.0419921875,0.8681640625,1.52587890625,-0.48828125,21.8505859375
1742308733,776116045,0.0234375,0.052734375,0.8876953125,2.44140625,-4.08935546875,19.83642578125
1742308733,796124533,0.08544921875,0.056640625,1.0048828125,2.86865234375,3.662109375,21.1181640625
1742308733,816161118,-0.01025390625,0.060546875,0.9306640625,-2.74658203125,1.0986328125,25.5126953125
1742308733,836161670,0.03076171875,0.11865234375,0.97509765625,-1.220703125,0.79345703125,25.5126953125
1742308733,856164078,-0.01171875,0.06005859375,1.02001953125,3.47900390625,-6.34765625,26.3671875
1742308733,876172695,-0.046875,0.12744140625,0.947265625,0.67138671875,-0.48828125,36.1328125
1742308733,896132028,0.12646484375,0.10107421875,1.06689453125,1.28173828125,-1.28173828125,48.095703125
1742308733,916223465,0.12353515625,-0.00244140625,1.13720703125,5.18798828125,2.25830078125,56.45751953125
1742308733,936351127,0.029296875,0.01123046875,1.0498046875,3.23486328125,2.38037109375,60.72998046875
1742308733,956155541,0.10693359375,0.041015625,1.13525390625,1.46484375,11.5966796875,59.9365234375
1742308733,976158813,0.0283203125,0.1025390625,0.91650390625,-0.244140625,5.43212890625,59.63134765625
1742308733,996170822,-0.0283203125,0.134765625,0.9853515625,-0.79345703125,-0.79345703125,61.82861328125
1742308734,16433871,-0.03662109375,0.04296875,1.05029296875,3.47900390625,-2.13623046875,62.5
1742308734,36236854,0.00830078125,0.04150390625,1.08984375,2.9296875,1.953125,63.04931640625
1742308734,56134786,0.12744140625,0.02978515625,0.9921875,1.0986328125,1.5869140625,62.1337890625
1742308734,76184597,0.205078125,0.06640625,0.87548828125,2.197265625,4.2724609375,62.1337890625
1742308734,96315051,0.1123046875,0.0419921875,0.89111328125,-0.06103515625,4.45556640625,62.31689453125
1742308734,116413281,0.12109375,0.11181640625,0.84521484375,-1.46484375,6.9580078125,62.8662109375
1742308734,136263146,0.0634765625,0.1298828125,0.9169921875,-2.62451171875,3.173828125,62.43896484375
1742308734,156106771,0.04296875,0.12646484375,0.96826171875,4.0283203125,6.2255859375,61.1572265625
1742308734,176119364,0.01806640625,0.06396484375,0.90966796875,7.01904296875,-4.21142578125,62.1337890625
1742308734,196232410,0.2060546875,0.091796875,0.8779296875,1.220703125,4.150390625,59.02099609375
1742308734,216291949,0.0419921875,0.05126953125,0.890625,-7.6904296875,4.57763671875,62.92724609375
1742308734,236237339,0.05712890625,0.06201171875,1.06298828125,-2.44140625,5.37109375,64.8193359375
1742308734,256511673,0.01953125,0.0986328125,0.95654296875,2.0751953125,2.25830078125,65.12451171875
1742308734,276514377,0.150390625,0.10595703125,1.01611328125,-1.77001953125,8.97216796875,66.162109375
1742308734,296222540,0.103515625,0.0712890625,0.89697265625,-3.96728515625,5.18798828125,62.56103515625
1742308734,316269535,0.13134765625,0.05810546875,0.8447265625,-2.38037109375,2.50244140625,61.279296875
1742308734,336330994,0.0341796875,0.109375,0.7783203125,2.13623046875,0.18310546875,62.8662109375
1742308734,356194140,0.0693359375,0.18212890625,0.8349609375,0.91552734375,-5.37109375,63.8427734375
1742308734,376521500,0.07763671875,0.12939453125,0.99853515625,1.52587890625,1.40380859375,65.00244140625
1742308734,396363141,0.08984375,0.02880859375,0.90087890625,3.60107421875,0.244140625,67.626953125
1742308734,416483899,0.171875,0.171875,0.80419921875,1.220703125,3.173828125,65.7958984375
1742308734,436418057,0.08154296875,0.22412109375,0.73876953125,-3.0517578125,-1.40380859375,63.65966796875
1742308734,456254737,0.15771484375,0.1748046875,0.8896484375,2.5634765625,3.23486328125,61.767578125
1742308734,476268610,0.12158203125,0.177734375,1.0244140625,9.58251953125,8.48388671875,59.87548828125
1742308734,496335318,0.08056640625,0.14306640625,0.9638671875,9.3994140625,1.28173828125,59.14306640625
1742308734,516315334,0.130859375,0.1806640625,0.93115234375,0.67138671875,9.09423828125,57.31201171875
1742308734,536441340,0.01513671875,0.0576171875,1.125,-1.03759765625,7.32421875,60.60791015625
1742308734,556184544,0.01220703125,-0.01953125,1.23388671875,3.662109375,6.65283203125,62.6220703125
1742308734,576190929,-0.01904296875,0.05859375,1.14697265625,-0.30517578125,7.99560546875,62.744140625
1742308734,596436205,0.06689453125,0.05859375,1.1376953125,1.953125,0.1220703125,65.0634765625
1742308734,616361850,0.048828125,0.15771484375,1.07275390625,11.474609375,7.4462890625,63.78173828125
1742308734,636307272,0.09716796875,0.21337890625,0.85693359375,4.33349609375,0.0,62.07275390625
1742308734,656171378,0.08251953125,0.115234375,0.890625,-3.47900390625,1.40380859375,59.63134765625
1742308734,676139681,0.05322265625,0.0830078125,1.05615234375,2.0751953125,3.60107421875,58.04443359375
1742308734,696131409,0.03759765625,0.1123046875,1.10205078125,1.0986328125,2.99072265625,60.24169921875
1742308734,716434384,0.05419921875,0.0341796875,1.10498046875,-1.15966796875,1.3427734375,63.720703125
1742308734,736298810,0.033203125,-0.03076171875,1.1171875,4.150390625,4.33349609375,65.7958984375
1742308734,756176325,0.0419921875,-0.0458984375,1.04931640625,4.39453125,1.46484375,64.02587890625
1742308734,776158132,0.13671875,-0.0009765625,1.001953125,0.30517578125,5.55419921875,63.29345703125
1742308734,796477812,0.0712890625,0.04638671875,1.14453125,0.42724609375,2.50244140625,63.29345703125
1742308734,816243418,0.06787109375,0.017578125,1.1494140625,7.080078125,5.31005859375,60.24169921875
1742308734,836170183,0.11376953125,0.07373046875,0.984375,8.9111328125,2.86865234375,55.35888671875
1742308734,856152854,0.06591796875,0.0810546875,1.0771484375,-1.46484375,6.591796875,53.77197265625
1742308734,876192009,-0.1064453125,0.0517578125,1.17578125,-7.568359375,8.11767578125,59.2041015625
1742308734,896445061,-0.00439453125,-0.0380859375,1.1318359375,1.0986328125,-0.18310546875,64.75830078125
1742308734,916284302,0.1083984375,0.0390625,0.84814453125,4.7607421875,1.5869140625,61.95068359375
1742308734,936320064,0.16162109375,0.09033203125,0.81103515625,-0.79345703125,2.9296875,62.1337890625
1742308734,956432566,0.21826171875,0.0107421875,0.81982421875,-3.96728515625,4.08935546875,60.546875
1742308734,976346882,0.12353515625,0.0693359375,0.82470703125,-1.28173828125,5.4931640625,61.46240234375
1742308734,999797910,0.0361328125,0.1826171875,0.7099609375,-4.2724609375,2.5634765625,57.861328125
1742308735,17204032,0.02490234375,0.14599609375,0.91796875,-4.0283203125,3.23486328125,56.396484375
1742308735,41505312,-0.01220703125,0.07421875,1.14013671875,3.5400390625,-1.77001953125,54.26025390625
1742308735,51662004,0.01953125,0.05078125,1.08642578125,-0.42724609375,2.9296875,49.8046875
1742308735,79364593,0.02392578125,0.04638671875,1.09228515625,9.033203125,-0.79345703125,47.79052734375
1742308735,91832368,0.08837890625,-0.0078125,1.07080078125,3.23486328125,5.37109375,44.37255859375
1742308735,117148223,0.00048828125,0.08056640625,1.16455078125,1.03759765625,5.55419921875,47.42431640625
1742308735,136639489,0.0,0.08349609375,1.18603515625,2.0751953125,4.39453125,44.677734375
1742308735,156827812,-0.0341796875,0.07275390625,1.19921875,6.16455078125,6.7138671875,44.61669921875
1742308735,176693783,0.0126953125,-0.0263671875,1.10888671875,8.48388671875,1.708984375,41.44287109375
1742308735,191583238,-0.0322265625,0.0068359375,1.10107421875,-2.25830078125,12.02392578125,36.865234375
1742308735,216370748,-0.08056640625,0.00537109375,1.0712890625,-4.82177734375,2.44140625,40.4052734375
1742308735,236463578,0.0361328125,0.044921875,1.0048828125,0.6103515625,2.0751953125,39.1845703125
1742308735,256450612,0.0732421875,0.06396484375,0.7705078125,-3.72314453125,1.5869140625,35.82763671875
1742308735,276189953,0.14599609375,0.048828125,0.97265625,-2.685546875,5.4931640625,29.78515625
1742308735,296218941,-0.0126953125,0.03076171875,0.80810546875,-3.96728515625,6.65283203125,22.39990234375
1742308735,316235447,-0.04931640625,0.22607421875,0.75439453125,-5.43212890625,2.50244140625,11.65771484375
1742308735,336572289,-0.14697265625,0.1318359375,0.8984375,1.46484375,0.8544921875,3.5400390625
1742308735,351690361,-0.15966796875,0.12255859375,0.9248046875,-1.220703125,-2.8076171875,-0.30517578125
1742308735,376525042,0.0302734375,0.06298828125,0.99658203125,-1.89208984375,2.62451171875,-4.57763671875
1742308735,396334307,0.03271484375,0.09521484375,0.91357421875,-1.89208984375,2.5634765625,-11.53564453125
1742308735,416294491,-0.02880859375,0.173828125,0.9169921875,-0.732421875,-1.3427734375,-12.6953125
1742308735,436216946,-0.0576171875,0.1669921875,0.94287109375,1.0986328125,-4.2724609375,-9.033203125
1742308735,457209465,-0.02880859375,0.087890625,0.87646484375,5.7373046875,-2.3193359375,-9.33837890625
1742308735,476648953,-0.0322265625,0.0576171875,0.90380859375,0.06103515625,-1.03759765625,-11.41357421875
1742308735,496268898,0.00048828125,0.03271484375,0.9951171875,-3.0517578125,0.732421875,-14.16015625
1742308735,516534408,-0.0205078125,0.0546875,0.90673828125,-1.5869140625,0.244140625,-14.0380859375
1742308735,531805607,-0.03466796875,0.1044921875,0.87060546875,-2.0751953125,0.79345703125,-13.97705078125
1742308735,556417430,-0.0390625,0.1416015625,0.9375,-1.708984375,2.74658203125,-13.85498046875
1742308735,576867108,-0.173828125,0.0556640625,1.08837890625,-4.638671875,-2.44140625,-11.16943359375
1742308735,591538025,-0.033203125,0.05126953125,1.22119140625,6.591796875,3.173828125,-12.39013671875
1742308735,611470239,-0.0986328125,0.00048828125,1.0556640625,10.1318359375,0.6103515625,-12.451171875
1742308735,636651752,-0.09716796875,0.0009765625,1.083984375,-4.45556640625,2.8076171875,-11.1083984375
1742308735,656581855,-0.09765625,0.03662109375,1.0908203125,-2.197265625,-2.62451171875,-13.3056640625
1742308735,676532374,-0.13134765625,0.103515625,0.998046875,1.953125,-0.67138671875,-12.14599609375
1742308735,696728217,-0.03125,0.1435546875,0.94921875,4.57763671875,0.3662109375,-11.8408203125
1742308735,716483592,-0.123046875,0.126953125,0.90673828125,1.220703125,-4.33349609375,-10.07080078125
1742308735,736433983,0.02392578125,0.037109375,0.962890625,-0.91552734375,1.15966796875,-9.82666015625
1742308735,751825573,0.00341796875,0.00830078125,0.998046875,5.0048828125,2.13623046875,-10.80322265625
1742308735,779307223,-0.0322265625,0.08837890625,1.09619140625,2.9296875,3.84521484375,-11.04736328125
1742308735,796867745,-0.13232421875,0.068359375,1.12841796875,2.50244140625,-3.96728515625,-7.8125
1742308735,817079653,-0.0908203125,0.07958984375,1.05810546875,7.75146484375,-6.04248046875,-6.53076171875
1742308735,836017677,-0.0830078125,0.01513671875,0.95556640625,4.69970703125,-4.94384765625,-6.34765625
1742308735,856047721,0.01904296875,0.0234375,1.0537109375,1.5869140625,-2.25830078125,-9.521484375
1742308735,876004481,-0.03857421875,0.08544921875,1.150390625,2.50244140625,1.8310546875,-10.986328125
1742308735,896189955,-0.01708984375,0.01318359375,1.12255859375,2.86865234375,7.8125,-8.97216796875
1742308735,916199453,-0.1298828125,0.037109375,0.97705078125,0.18310546875,-1.52587890625,-6.34765625
1742308735,936034639,0.0029296875,0.06103515625,0.931640625,2.62451171875,-2.01416015625,-7.4462890625
1742308735,956154511,-0.041015625,0.0927734375,0.796875,-3.84521484375,6.9580078125,-9.27734375
1742308735,977079123,-0.1044921875,0.02294921875,1.0458984375,-2.8076171875,-0.8544921875,-7.568359375
1742308735,996231686,-0.07421875,0.1064453125,0.96630859375,2.3193359375,-4.150390625,-6.4697265625
1742308736,16240534,0.02783203125,0.17138671875,0.900390625,-1.15966796875,1.77001953125,-7.26318359375
1742308736,36138806,-0.0791015625,0.14892578125,0.880859375,-4.150390625,-2.9296875,-7.080078125
1742308736,56186140,-0.05517578125,0.169921875,0.9970703125,0.244140625,0.42724609375,-5.18798828125
1742308736,76501038,-0.0888671875,0.1396484375,0.90380859375,2.25830078125,-0.67138671875,-3.47900390625
1742308736,96309833,-0.06982421875,0.08154296875,0.8681640625,-2.25830078125,-3.41796875,-2.74658203125
1742308736,116435315,-0.00439453125,0.0439453125,1.041015625,-2.62451171875,4.82177734375,-3.0517578125
1742308736,136338450,-0.109375,0.02099609375,1.10546875,3.41796875,-1.64794921875,-2.99072265625
1742308736,156960082,-0.05224609375,0.04345703125,1.16845703125,7.38525390625,0.6103515625,-4.39453125
1742308736,176097519,-0.1435546875,-0.03125,1.0654296875,2.38037109375,-2.86865234375,-3.47900390625
1742308736,196391936,-0.11083984375,0.01220703125,0.92578125,0.9765625,-4.0283203125,-1.89208984375
1742308736,216237117,-0.00244140625,0.0712890625,0.9052734375,-1.77001953125,-1.220703125,-1.953125
1742308736,236319429,0.05224609375,0.111328125,1.048828125,0.48828125,0.48828125,-3.90625
1742308736,256458895,-0.009765625,0.1513671875,1.16943359375,7.4462890625,4.638671875,-4.7607421875
1742308736,276553975,-0.080078125,0.0673828125,1.009765625,1.52587890625,-0.732421875,-4.08935546875
1742308736,296285071,-0.0654296875,-0.0107421875,0.94775390625,-3.173828125,1.77001953125,-1.40380859375
1742308736,316375159,-0.04541015625,-0.01416015625,0.90087890625,3.47900390625,-0.6103515625,1.77001953125
1742308736,336289655,-0.05517578125,0.06689453125,0.9609375,-0.30517578125,1.8310546875,1.52587890625
1742308736,356481220,0.029296875,0.1474609375,0.90234375,-2.3193359375,0.54931640625,0.3662109375
1742308736,376447398,-0.0712890625,0.19677734375,0.90478515625,-4.8828125,1.64794921875,2.13623046875
1742308736,396212640,-0.01416015625,0.06982421875,1.03515625,3.5400390625,2.13623046875,1.46484375
1742308736,416181794,-0.10400390625,0.06005859375,0.99072265625,7.14111328125,-4.7607421875,0.67138671875
1742308736,436207751,-0.06884765625,0.04931640625,0.92529296875,-3.96728515625,1.46484375,2.44140625
1742308736,451324623,-0.01318359375,0.09130859375,0.779296875,-5.67626953125,-1.77001953125,5.4931640625
1742308736,471547901,0.04345703125,0.14111328125,0.953125,-5.43212890625,-1.8310546875,4.150390625
1742308736,491539169,0.00634765625,0.1220703125,0.9599609375,1.64794921875,0.06103515625,1.77001953125
1742308736,511469890,-0.03662109375,0.0927734375,1.00146484375,2.197265625,0.79345703125,1.5869140625
1742308736,536490312,-0.11181640625,0.07763671875,1.05419921875,0.79345703125,-3.2958984375,3.84521484375
1742308736,551463113,-0.01904296875,0.0556640625,0.92724609375,-0.6103515625,-2.86865234375,3.72314453125
1742308736,571356744,-0.0458984375,0.11767578125,0.828125,0.732421875,-2.685546875,4.8828125
1742308736,596549878,0.052734375,0.0947265625,0.9423828125,-0.42724609375,-0.79345703125,3.0517578125
1742308736,616194890,0.01904296875,0.0205078125,1.08203125,2.50244140625,3.60107421875,0.0
1742308736,636101482,-0.01708984375,0.07421875,1.01513671875,1.64794921875,3.662109375,0.42724609375
1742308736,656203698,-0.0595703125,0.08203125,0.87841796875,-7.8125,6.7138671875,2.01416015625
1742308736,676491811,-0.01318359375,0.0517578125,0.8818359375,-4.638671875,-4.45556640625,1.46484375
1742308736,696558890,0.05029296875,0.142578125,0.85986328125,-1.3427734375,3.173828125,1.64794921875
1742308736,716600336,-0.05712890625,0.103515625,1.041015625,-2.685546875,1.28173828125,4.638671875
1742308736,736509904,-0.05322265625,0.1015625,1.046875,-0.732421875,0.244140625,6.40869140625
1742308736,756586295,-0.0146484375,0.130859375,1.05517578125,0.67138671875,3.72314453125,6.04248046875
1742308736,776554906,-0.06103515625,0.03759765625,0.99267578125,-0.79345703125,-2.685546875,4.45556640625
1742308736,796534429,-0.04736328125,0.01611328125,1.03076171875,0.91552734375,-2.8076171875,8.9111328125
1742308736,816623429,-0.00439453125,0.07080078125,0.97412109375,-2.0751953125,3.41796875,12.939453125
1742308736,836581127,-0.0751953125,0.05712890625,0.96044921875,-1.708984375,-0.732421875,14.892578125
1742308736,856398114,-0.0400390625,0.080078125,1.00927734375,-2.197265625,-2.50244140625,17.15087890625
1742308736,876586639,0.06982421875,0.08984375,0.99365234375,2.685546875,3.662109375,15.5029296875
1742308736,896340168,-0.01220703125,0.0732421875,0.99072265625,-0.30517578125,-0.6103515625,13.61083984375
1742308736,916197221,-0.111328125,0.052734375,1.05810546875,1.28173828125,-2.62451171875,16.845703125
1742308736,936187048,0.04052734375,0.0458984375,0.947265625,1.708984375,-6.89697265625,16.66259765625
1742308736,956351956,0.033203125,0.076171875,0.85546875,-1.3427734375,-0.42724609375,19.83642578125
1742308736,976244467,0.07373046875,0.10400390625,0.958984375,-0.1220703125,3.23486328125,19.6533203125
1742308736,996270424,0.0693359375,0.091796875,0.9765625,-0.1220703125,3.5400390625,17.15087890625
1742308737,16283443,-0.05029296875,0.08740234375,0.94921875,-0.91552734375,3.47900390625,18.12744140625
1742308737,36308770,-0.044921875,0.076171875,0.9052734375,1.28173828125,-1.15966796875,21.8505859375
1742308737,56210157,-0.00048828125,0.12353515625,0.9677734375,-0.1220703125,-1.64794921875,22.88818359375
1742308737,76363394,0.00048828125,0.03125,1.09326171875,-1.953125,1.953125,22.4609375
1742308737,96537465,-0.06494140625,0.0283203125,1.00732421875,2.0751953125,4.08935546875,26.611328125
1742308737,116181592,0.00341796875,0.05517578125,1.00732421875,2.9296875,2.3193359375,27.40478515625
1742308737,136141189,0.015625,0.09912109375,0.82373046875,-2.74658203125,4.21142578125,28.01513671875
1742308737,151470406,0.0205078125,0.16943359375,0.93603515625,-2.9296875,0.06103515625,27.587890625
1742308737,176677369,-0.02001953125,0.13134765625,0.99462890625,-0.3662109375,-2.86865234375,28.38134765625
1742308737,196382363,-0.01513671875,0.07470703125,0.9892578125,1.64794921875,-3.11279296875,32.71484375
1742308737,216203298,0.05712890625,0.05615234375,1.0107421875,3.35693359375,6.9580078125,33.0810546875
1742308737,231527139,0.025390625,0.12890625,0.85107421875,5.7373046875,-2.62451171875,33.63037109375
1742308737,256252002,0.08056640625,0.12744140625,0.94140625,-0.244140625,4.82177734375,33.50830078125
1742308737,276329620,0.0888671875,0.048828125,0.98046875,2.74658203125,2.197265625,31.67724609375
1742308737,296358436,0.095703125,0.07080078125,0.986328125,3.60107421875,2.01416015625,30.82275390625
1742308737,316498584,-0.05078125,0.0712890625,1.13818359375,8.23974609375,1.03759765625,32.28759765625
1742308737,336310623,0.02099609375,0.0771484375,1.0732421875,6.77490234375,-0.67138671875,32.3486328125
1742308737,356282380,0.0263671875,0.0537109375,0.8544921875,-4.57763671875,2.0751953125,32.04345703125
1742308737,376753136,0.08203125,0.0869140625,0.89404296875,-3.60107421875,0.6103515625,31.67724609375
1742308737,396455441,0.01513671875,0.091796875,0.97021484375,0.79345703125,1.40380859375,33.203125
1742308737,416333083,-0.02880859375,0.06201171875,1.13427734375,0.1220703125,1.89208984375,35.21728515625
1742308737,436225957,0.06640625,0.0068359375,1.05615234375,1.15966796875,-1.220703125,35.58349609375
1742308737,456272853,-0.00146484375,0.0546875,1.029296875,1.28173828125,4.69970703125,35.7666015625
1742308737,476505422,0.02490234375,0.08349609375,1.033203125,-1.77001953125,3.11279296875,35.70556640625
1742308737,496347446,0.0146484375,0.064453125,0.8564453125,-2.197265625,4.69970703125,36.62109375
1742308737,516301795,-0.033203125,0.0546875,0.92724609375,-1.5869140625,1.3427734375,39.1845703125
1742308737,536290417,0.01318359375,0.11865234375,0.92626953125,-4.82177734375,-0.18310546875,41.32080078125
1742308737,556641039,0.08642578125,0.1220703125,1.00390625,-0.42724609375,2.99072265625,41.80908203125
1742308737,576371794,0.0576171875,0.16650390625,0.84423828125,2.3193359375,-6.2255859375,41.50390625
1742308737,596513287,0.046875,0.0927734375,0.99072265625,1.15966796875,-0.8544921875,40.1611328125
1742308737,616237001,0.07373046875,0.02392578125,1.07373046875,5.06591796875,5.79833984375,40.46630859375
1742308737,636500356,0.02490234375,0.0576171875,0.9609375,5.4931640625,0.42724609375,43.76220703125
1742308737,656511635,0.10693359375,0.06494140625,1.03515625,0.67138671875,5.67626953125,41.80908203125
1742308737,676662984,0.08984375,0.173828125,1.0400390625,6.53076171875,4.2724609375,39.9169921875
1742308737,696335272,-0.00439453125,0.16162109375,0.96826171875,-1.0986328125,2.3193359375,40.1611328125
1742308737,716550048,-0.03515625,-0.02783203125,1.05615234375,-0.732421875,5.4931640625,42.78564453125
1742308737,736378408,-0.02734375,0.00634765625,1.03369140625,6.103515625,-5.37109375,44.43359375
1742308737,751988373,0.0439453125,0.1767578125,0.978515625,0.18310546875,0.48828125,44.25048828125
1742308737,776511403,0.09326171875,0.12548828125,1.02294921875,-3.72314453125,-3.7841796875,44.61669921875
1742308737,796688577,0.08984375,0.05712890625,0.97265625,0.6103515625,8.30078125,45.7763671875
1742308737,816915546,0.05419921875,0.09716796875,0.8046875,-0.54931640625,0.67138671875,44.00634765625
1742308737,831852586,0.0361328125,0.08203125,0.96240234375,-4.69970703125,1.8310546875,41.68701171875
1742308737,856309309,0.01220703125,0.02001953125,1.00732421875,-3.11279296875,2.86865234375,43.701171875
1742308737,876650202,0.01171875,0.02197265625,0.888671875,-2.197265625,1.77001953125,47.2412109375
1742308737,896430559,0.0869140625,0.0859375,0.93603515625,1.5869140625,3.41796875,46.142578125
1742308737,916363819,0.0302734375,0.125,0.96240234375,0.54931640625,-0.3662109375,44.5556640625
1742308737,937676980,-0.00146484375,0.07666015625,1.1474609375,1.89208984375,1.0986328125,44.37255859375
1742308737,956515535,-0.01123046875,0.04345703125,1.12841796875,3.2958984375,0.244140625,44.61669921875
1742308737,976521790,0.05078125,-0.02880859375,1.0087890625,0.79345703125,4.08935546875,42.3583984375
1742308737,991665880,0.109375,-0.02294921875,1.1513671875,6.103515625,1.220703125,40.58837890625
1742308738,11517979,-0.0009765625,0.083984375,1.1533203125,6.4697265625,5.0048828125,38.39111328125
1742308738,31440786,0.02099609375,0.10400390625,0.8857421875,-0.3662109375,7.2021484375,35.58349609375
1742308738,51397450,-0.0263671875,0.16162109375,0.85205078125,-0.67138671875,0.244140625,36.19384765625
1742308738,76570882,0.02734375,0.15185546875,0.9140625,0.6103515625,5.06591796875,36.92626953125
1742308738,96375572,0.009765625,0.0205078125,1.04345703125,-1.28173828125,0.30517578125,37.29248046875
1742308738,116251401,0.0458984375,0.02685546875,0.9912109375,-1.15966796875,-2.62451171875,38.6962890625
1742308738,136277444,0.12353515625,0.10009765625,1.07958984375,2.9296875,3.84521484375,44.0673828125
1742308738,156219260,-0.02587890625,0.076171875,1.05126953125,5.0048828125,-0.42724609375,45.71533203125
1742308738,176327386,-0.021484375,0.0439453125,0.953125,0.0,-2.25830078125,47.66845703125
1742308738,196780712,0.02392578125,-0.03466796875,0.9482421875,-3.7841796875,3.60107421875,47.4853515625
1742308738,216158983,0.037109375,0.03076171875,1.08544921875,-4.0283203125,1.64794921875,46.142578125
1742308738,236185379,0.0517578125,0.06787109375,1.14013671875,2.25830078125,6.16455078125,44.25048828125
1742308738,256306626,-0.09765625,0.1259765625,1.04296875,4.150390625,1.5869140625,39.9169921875
1742308738,276326781,0.0087890625,-0.01806640625,1.00439453125,0.3662109375,-3.0517578125,37.109375
1742308738,296577858,0.0888671875,0.0146484375,1.0947265625,1.8310546875,7.9345703125,32.958984375
1742308738,316301680,-0.02197265625,0.0087890625,1.0732421875,4.7607421875,2.86865234375,29.541015625
1742308738,336232327,-0.017578125,0.0576171875,0.9794921875,0.3662109375,-2.99072265625,29.35791015625
1742308738,356252002,0.16650390625,0.09033203125,0.98046875,4.21142578125,2.5634765625,33.203125
1742308738,371425005,0.212890625,0.25390625,0.79638671875,2.9296875,5.43212890625,37.2314453125
1742308738,396334010,-0.00244140625,0.21240234375,0.84716796875,-7.62939453125,3.47900390625,38.02490234375
1742308738,416347252,-0.0400390625,0.060546875,0.99853515625,0.06103515625,-1.0986328125,38.6962890625
1742308738,436234378,-0.015625,-0.029296875,0.916015625,4.5166015625,3.11279296875,39.1845703125
1742308738,456317607,0.09619140625,0.18798828125,0.76904296875,0.79345703125,1.220703125,41.68701171875
1742308738,476341347,0.0517578125,0.18798828125,1.048828125,-4.150390625,1.03759765625,44.5556640625
1742308738,496396735,0.1201171875,0.13232421875,0.89404296875,4.08935546875,4.57763671875,44.3115234375
1742308738,511377730,0.009765625,0.0830078125,0.77734375,-2.86865234375,5.859375,42.8466796875
1742308738,531476512,-0.03759765625,-0.0224609375,1.0400390625,-2.685546875,1.3427734375,45.166015625
1742308738,556493874,0.0009765625,0.0546875,0.9931640625,-0.732421875,0.244140625,47.05810546875
1742308738,576670355,-0.05859375,0.06787109375,0.96484375,0.244140625,-6.53076171875,49.6826171875
1742308738,591352361,0.130859375,0.06201171875,0.8349609375,-1.52587890625,-2.197265625,48.2177734375
1742308738,616597092,0.14794921875,0.076171875,0.794921875,-5.06591796875,1.03759765625,46.38671875
1742308738,636209358,0.09130859375,0.16796875,0.8505859375,-2.99072265625,0.54931640625,47.30224609375
1742308738,656196455,0.1513671875,0.13427734375,1.0087890625,5.55419921875,4.08935546875,45.8984375
1742308738,676321895,0.0234375,0.11669921875,0.9912109375,2.25830078125,1.15966796875,44.00634765625
1742308738,696450630,0.0771484375,0.08837890625,1.0849609375,2.99072265625,3.35693359375,43.3349609375
1742308738,711348294,0.05126953125,0.09619140625,1.09228515625,5.06591796875,7.38525390625,42.29736328125
1742308738,736227217,-0.0439453125,-0.005859375,0.97314453125,-0.1220703125,7.01904296875,40.4052734375
1742308738,751781164,-0.0625,-0.0390625,1.09375,0.732421875,3.84521484375,37.353515625
1742308738,776622038,-0.10302734375,0.01953125,1.1767578125,2.9296875,2.25830078125,37.2314453125
1742308738,796713588,0.03369140625,0.125,0.91748046875,-4.7607421875,-1.0986328125,37.04833984375
1742308738,816285372,0.1259765625,0.17822265625,1.0810546875,-4.150390625,7.62939453125,35.09521484375
1742308738,837019414,-0.00244140625,0.00830078125,1.14013671875,5.9814453125,4.0283203125,33.14208984375
1742308738,856397749,-0.0166015625,0.0361328125,0.912109375,7.4462890625,6.04248046875,32.40966796875
1742308738,876460338,-0.1220703125,0.09912109375,0.8193359375,-4.21142578125,-1.77001953125,30.45654296875
1742308738,896625555,0.04345703125,0.142578125,0.9296875,-5.0048828125,3.41796875,28.076171875
1742308738,916486855,-0.04931640625,0.12109375,1.02685546875,0.1220703125,2.13623046875,27.099609375
1742308738,936301945,0.109375,0.0869140625,0.8984375,2.13623046875,1.46484375,26.2451171875
1742308738,956462554,0.0361328125,0.10546875,0.93212890625,0.3662109375,1.03759765625,23.74267578125
1742308738,976496982,-0.013671875,0.0595703125,1.11328125,-0.732421875,2.99072265625,26.85546875
1742308738,996759867,-0.0947265625,0.0478515625,0.99658203125,4.0283203125,-7.26318359375,29.78515625
1742308739,16846095,0.0068359375,0.013671875,1.0380859375,3.0517578125,0.244140625,27.83203125
1742308739,36723728,0.03173828125,-0.0400390625,1.0400390625,3.11279296875,0.42724609375,23.98681640625
1742308739,53845342,0.08740234375,0.0908203125,1.11962890625,-1.5869140625,6.591796875,21.728515625
1742308739,75443207,-0.0302734375,0.01513671875,0.92431640625,-1.220703125,4.0283203125,21.91162109375
1742308739,96584253,-0.06494140625,0.056640625,0.7587890625,-4.69970703125,-1.5869140625,23.01025390625
1742308739,116460030,0.09765625,0.08740234375,0.841796875,-7.62939453125,4.5166015625,20.99609375
1742308739,131446322,-0.01318359375,0.095703125,0.9169921875,-1.8310546875,2.685546875,21.3623046875
1742308739,156494636,-0.01953125,0.16552734375,0.91259765625,-2.44140625,1.220703125,23.37646484375
1742308739,176669401,0.0380859375,0.13330078125,0.86767578125,1.52587890625,4.7607421875,22.0947265625
1742308739,196665599,0.04296875,0.08984375,0.7529296875,-6.591796875,-2.3193359375,21.17919921875
1742308739,216606435,0.05810546875,0.119140625,0.79296875,-11.23046875,1.52587890625,20.3857421875
1742308739,236431266,-0.0634765625,0.16064453125,0.9560546875,-5.2490234375,-6.89697265625,22.94921875
1742308739,256716276,0.04150390625,0.1044921875,1.01611328125,7.62939453125,1.3427734375,23.4375
1742308739,276429774,-0.0400390625,0.1103515625,0.9169921875,2.25830078125,-2.38037109375,24.23095703125
1742308739,296623005,0.01806640625,0.00927734375,1.0166015625,-2.0751953125,0.244140625,24.71923828125
1742308739,316600642,0.0859375,-0.0322265625,1.05078125,9.58251953125,1.28173828125,21.17919921875
1742308739,336525349,0.02734375,0.1796875,0.85888671875,7.50732421875,3.2958984375,19.53125
1742308739,356662193,-0.04150390625,0.0966796875,1.0234375,0.67138671875,-0.9765625,23.0712890625
1742308739,377295729,-0.099609375,-0.0224609375,1.27294921875,11.8408203125,-3.96728515625,26.4892578125
1742308739,396572569,0.05419921875,0.0947265625,1.14306640625,20.1416015625,2.44140625,24.7802734375
1742308739,416528190,-0.04248046875,0.11083984375,0.95703125,2.3193359375,0.91552734375,24.47509765625
1742308739,431383084,-0.021484375,0.0078125,1.0546875,-2.50244140625,6.40869140625,25.93994140625
1742308739,456553515,-0.11669921875,-0.0458984375,1.01708984375,6.2255859375,-3.41796875,30.82275390625
1742308739,476557969,0.09912109375,0.12109375,0.9072265625,5.92041015625,4.2724609375,31.3720703125
1742308739,496499701,0.11181640625,0.08935546875,1.00537109375,-4.21142578125,-0.244140625,30.09033203125
1742308739,511602062,0.08642578125,-0.0078125,1.14208984375,0.1220703125,6.103515625,30.029296875
1742308739,536458464,0.00390625,-0.00048828125,0.81201171875,4.0283203125,7.14111328125,31.43310546875
1742308739,556436421,0.01171875,0.0693359375,0.8974609375,2.13623046875,5.0048828125,30.3955078125
1742308739,576664053,-0.06982421875,0.1103515625,1.00146484375,1.15966796875,3.173828125,32.5927734375
1742308739,596652026,-0.134765625,0.0703125,1.0224609375,-1.28173828125,-8.36181640625,36.62109375
1742308739,616671361,0.07568359375,0.0625,0.9423828125,-3.23486328125,2.9296875,35.400390625
1742308739,636511105,-0.00927734375,0.083984375,0.95849609375,4.45556640625,-4.8828125,33.14208984375
1742308739,656569578,0.046875,0.1259765625,0.888671875,4.57763671875,0.67138671875,32.3486328125
1742308739,676713494,-0.07177734375,0.0791015625,0.9814453125,3.11279296875,-4.45556640625,36.80419921875
1742308739,696582582,0.12060546875,0.10986328125,1.07861328125,3.0517578125,0.48828125,36.0107421875
1742308739,716569212,-0.0087890625,0.05419921875,1.0419921875,4.94384765625,0.732421875,34.85107421875
1742308739,736621956,0.10546875,0.07666015625,0.99951171875,0.244140625,2.197265625,35.09521484375
1742308739,751722269,0.07177734375,0.119140625,1.03271484375,0.0,5.9814453125,37.4755859375
1742308739,776514348,0.04443359375,0.10595703125,0.89111328125,-1.40380859375,1.03759765625,42.724609375
1742308739,796383309,0.0048828125,0.0400390625,0.86669921875,-1.708984375,-3.173828125,42.6025390625
1742308739,816432565,0.08935546875,0.07275390625,0.95947265625,-0.54931640625,5.67626953125,41.9921875
1742308739,836417051,0.01025390625,0.072265625,0.8798828125,-8.056640625,-1.8310546875,45.0439453125
1742308739,856534182,0.11962890625,0.0498046875,1.09814453125,-2.62451171875,4.8828125,46.08154296875
1742308739,876649553,-0.04931640625,0.1240234375,0.9453125,2.685546875,2.197265625,48.03466796875
1742308739,896524242,0.07421875,0.13134765625,0.84716796875,-3.662109375,4.2724609375,45.7763671875
1742308739,916618364,-0.00439453125,0.08349609375,0.8974609375,-5.2490234375,3.2958984375,47.54638671875
1742308739,936584225,0.00390625,0.02099609375,0.92919921875,-3.90625,1.28173828125,49.49951171875
1742308739,956351677,0.072265625,0.12060546875,0.95068359375,0.48828125,3.47900390625,49.9267578125
1742308739,976529163,0.060546875,0.17431640625,1.0078125,1.40380859375,-1.15966796875,49.9267578125
1742308739,996471342,0.021484375,0.08349609375,0.93212890625,3.72314453125,-0.6103515625,49.49951171875
1742308740,16939231,0.06005859375,0.05712890625,0.78515625,-2.685546875,1.15966796875,49.49951171875
1742308740,36690119,0.06884765625,0.013671875,0.857421875,-4.2724609375,1.5869140625,50.1708984375
1742308740,56599959,0.09033203125,0.0625,1.0693359375,6.77490234375,-0.79345703125,48.03466796875
1742308740,76552519,0.15771484375,0.2041015625,0.96533203125,8.9111328125,5.7373046875,46.2646484375
1742308740,96748674,0.046875,0.17822265625,0.91748046875,-3.84521484375,8.056640625,49.01123046875
1742308740,116657265,-0.02734375,0.056640625,0.93017578125,-4.5166015625,6.04248046875,52.001953125
1742308740,136386457,-0.00048828125,0.0244140625,0.8876953125,-0.3662109375,-2.5634765625,53.5888671875
1742308740,151579495,0.13330078125,0.146484375,1.14404296875,-1.708984375,8.23974609375,49.98779296875
1742308740,176509188,0.0791015625,0.1015625,1.13916015625,-1.15966796875,2.62451171875,48.9501953125
1742308740,196816803,0.0439453125,0.06201171875,1.12548828125,6.103515625,4.45556640625,56.0302734375
1742308740,216542155,0.029296875,0.1142578125,0.7666015625,-3.47900390625,-3.72314453125,61.767578125
1742308740,236395000,0.10009765625,0.08447265625,0.78173828125,-10.009765625,4.82177734375,62.8662109375
1742308740,256509424,0.1396484375,0.08740234375,0.8154296875,-3.35693359375,-1.64794921875,64.5751953125
1742308740,276496834,0.09033203125,0.17626953125,0.84033203125,0.54931640625,-0.06103515625,65.36865234375
1742308740,296366959,0.13037109375,0.1689453125,0.93505859375,-2.50244140625,0.6103515625,62.744140625
1742308740,316741106,0.09423828125,0.10791015625,0.9580078125,-0.6103515625,5.55419921875,59.9365234375
1742308740,336459961,0.05712890625,0.04541015625,0.9892578125,3.72314453125,5.4931640625,60.85205078125
1742308740,356456044,0.015625,0.0087890625,1.05908203125,3.0517578125,-3.90625,63.3544921875
1742308740,376760587,0.09912109375,-0.0302734375,1.08984375,0.244140625,6.77490234375,63.29345703125
1742308740,396500435,0.1083984375,0.03173828125,1.10400390625,0.8544921875,4.5166015625,60.791015625
1742308740,416439812,0.05859375,0.07763671875,1.04443359375,3.0517578125,-0.30517578125,61.34033203125
1742308740,431581008,0.0283203125,0.1357421875,0.84619140625,-3.90625,2.01416015625,59.99755859375
1742308740,456796088,0.10205078125,0.1171875,1.0390625,2.01416015625,2.0751953125,59.4482421875
1742308740,471608854,0.02099609375,0.07666015625,1.13623046875,1.8310546875,8.056640625,60.4248046875
1742308740,491690029,0.05419921875,-0.01611328125,1.193359375,5.859375,2.0751953125,61.46240234375
1742308740,511538745,0.044921875,0.10986328125,1.123046875,0.91552734375,6.4697265625,63.5986328125
1742308740,536483927,0.02490234375,0.1015625,1.11962890625,6.89697265625,2.99072265625,63.65966796875
1742308740,551496605,0.0771484375,0.06298828125,0.91455078125,3.72314453125,4.69970703125,62.3779296875
1742308740,576656675,0.0078125,0.0537109375,0.9677734375,-2.62451171875,5.92041015625,64.3310546875
1742308740,596474095,0.0859375,0.025390625,1.0595703125,-3.7841796875,-0.732421875,65.5517578125
1742308740,616468385,0.02392578125,0.05029296875,1.0986328125,6.53076171875,1.89208984375,64.0869140625
1742308740,636539031,0.10595703125,0.1220703125,0.91357421875,0.48828125,-4.21142578125,60.72998046875
1742308740,657239527,0.0341796875,0.0244140625,0.84375,-3.35693359375,-4.45556640625,60.6689453125
1742308740,676616704,0.14892578125,0.1083984375,0.68896484375,-1.40380859375,-4.82177734375,60.97412109375
1742308740,696495054,0.10791015625,0.14306640625,0.810546875,-0.732421875,4.150390625,59.14306640625
1742308740,716484672,0.05224609375,0.0908203125,1.10302734375,2.99072265625,1.953125,61.4013671875
1742308740,736438225,0.10693359375,0.1181640625,1.18115234375,5.79833984375,7.99560546875,60.48583984375
1742308740,756630764,-0.01611328125,0.01318359375,1.1474609375,5.0048828125,5.37109375,61.46240234375
1742308740,776529147,0.00439453125,-0.08056640625,1.14794921875,6.89697265625,4.7607421875,58.16650390625
1742308740,796694421,-0.09423828125,0.0390625,1.15185546875,4.0283203125,9.46044921875,55.5419921875
1742308740,816612772,-0.03759765625,0.0234375,1.08251953125,-3.72314453125,-0.8544921875,57.9833984375
1742308740,836510419,0.02392578125,0.04248046875,0.91259765625,-1.89208984375,3.47900390625,56.0302734375
1742308740,856767312,0.17919921875,0.06982421875,0.984375,1.64794921875,2.685546875,51.6357421875
1742308740,876710913,0.08447265625,0.1552734375,0.78369140625,0.18310546875,-0.06103515625,47.54638671875
1742308740,896741045,0.14306640625,0.21826171875,0.73876953125,-3.47900390625,3.90625,46.0205078125
1742308740,916603714,0.0146484375,0.16552734375,0.77783203125,-1.3427734375,5.31005859375,46.630859375
1742308740,936643351,0.005859375,0.142578125,0.89013671875,-0.3662109375,-1.0986328125,45.10498046875
1742308740,956564262,-0.0146484375,-0.02392578125,1.06982421875,2.197265625,-1.953125,43.8232421875
1742308740,976803939,0.05029296875,0.0166015625,0.765625,1.89208984375,-0.18310546875,41.80908203125
1742308740,996649295,0.138671875,0.11279296875,0.75439453125,-4.57763671875,1.52587890625,37.04833984375
1742308741,16704411,0.02978515625,0.072265625,0.95654296875,-5.4931640625,2.25830078125,33.447265625
1742308741,36468178,0.0185546875,0.017578125,1.07470703125,4.2724609375,3.41796875,32.71484375
1742308741,56606232,0.02294921875,0.05126953125,0.99267578125,4.150390625,2.74658203125,29.35791015625
1742308741,76844194,-0.01416015625,-0.01513671875,0.99658203125,-1.46484375,2.38037109375,27.40478515625
1742308741,96431985,-0.0048828125,0.0751953125,0.96875,0.0,2.5634765625,23.86474609375
1742308741,116593560,-0.0439453125,0.08837890625,0.94091796875,-0.54931640625,0.06103515625,21.17919921875
1742308741,136704156,-0.02099609375,0.083984375,0.83447265625,-0.6103515625,-3.5400390625,19.6533203125
1742308741,156677627,0.0390625,0.099609375,0.9794921875,-7.2021484375,6.2255859375,15.380859375
1742308741,176664091,-0.01708984375,0.01953125,1.04345703125,-3.11279296875,-0.8544921875,15.31982421875
1742308741,196738910,0.048828125,0.06298828125,0.90625,5.55419921875,8.97216796875,15.68603515625
1742308741,216614553,-0.0322265625,0.1416015625,0.76513671875,2.685546875,-1.220703125,16.6015625
1742308741,236661852,0.001953125,0.13330078125,0.779296875,-6.89697265625,-0.8544921875,16.54052734375
1742308741,256624890,-0.00146484375,0.03369140625,1.08203125,-5.615234375,-4.82177734375,13.85498046875
1742308741,276537687,0.06787109375,0.072265625,1.15185546875,5.2490234375,4.21142578125,12.51220703125
1742308741,296525879,-0.09765625,0.1474609375,1.0185546875,2.0751953125,1.953125,10.986328125
1742308741,316524279,-0.0908203125,0.021484375,1.025390625,2.50244140625,4.57763671875,12.63427734375
1742308741,336553336,-0.091796875,0.037109375,1.0537109375,3.7841796875,-6.34765625,13.12255859375
1742308741,356596250,0.05224609375,0.02099609375,1.12060546875,5.126953125,7.9345703125,11.23046875
1742308741,376809635,-0.00390625,0.06884765625,0.88427734375,5.0048828125,-4.5166015625,6.40869140625
1742308741,396514199,0.0791015625,0.0283203125,0.85595703125,-4.150390625,7.2021484375,4.39453125
1742308741,416511063,0.064453125,0.09375,0.92333984375,0.732421875,1.953125,1.89208984375
1742308741,436796515,0.01416015625,0.1962890625,0.923828125,3.173828125,2.74658203125,0.91552734375
1742308741,456718016,-0.10693359375,0.1630859375,0.93408203125,-0.6103515625,-4.638671875,1.8310546875
1742308741,476664958,-0.07373046875,0.033203125,0.9404296875,-2.62451171875,-4.7607421875,5.06591796875
1742308741,496797539,-0.10400390625,-0.0048828125,1.0302734375,3.23486328125,-4.57763671875,5.67626953125
1742308741,516680703,0.01904296875,0.0537109375,1.05322265625,3.60107421875,5.2490234375,3.23486328125
1742308741,536697279,-0.0888671875,0.0537109375,1.06201171875,-7.4462890625,-3.0517578125,3.96728515625
1742308741,556831493,-0.013671875,0.0576171875,1.1455078125,-3.96728515625,5.9814453125,4.69970703125
1742308741,576738945,0.00048828125,0.0830078125,0.81982421875,1.40380859375,5.92041015625,3.662109375
1742308741,596481015,0.0009765625,0.04345703125,0.8564453125,0.9765625,1.89208984375,3.5400390625
1742308741,616460567,-0.09423828125,0.0673828125,0.90966796875,-5.859375,-4.08935546875,6.16455078125
1742308741,636901768,0.00341796875,0.130859375,0.95068359375,-5.9814453125,2.74658203125,6.591796875
1742308741,656870279,-0.0087890625,0.1826171875,0.8798828125,-3.173828125,-1.28173828125,5.0048828125
1742308741,676477336,-0.037109375,0.13720703125,0.88037109375,-3.35693359375,-1.953125,3.90625
1742308741,696499129,-0.0126953125,0.0380859375,1.00341796875,2.86865234375,2.74658203125,3.2958984375
1742308741,716599165,-0.09912109375,0.095703125,1.0263671875,7.6904296875,-1.953125,4.5166015625
1742308741,736814822,-0.009765625,0.13232421875,1.0537109375,1.77001953125,2.13623046875,5.7373046875
1742308741,756931723,-0.0703125,0.1220703125,1.01318359375,-0.9765625,3.5400390625,4.0283203125
1742308741,776643807,0.06494140625,0.03662109375,1.01318359375,2.86865234375,2.38037109375,0.9765625
1742308741,796823495,0.01171875,0.05712890625,0.91357421875,3.11279296875,5.55419921875,-1.15966796875
1742308741,816637023,-0.0595703125,0.0546875,0.900390625,-2.62451171875,0.18310546875,-1.46484375
1742308741,836780613,-0.083984375,0.12451171875,0.9697265625,-1.0986328125,-5.126953125,2.74658203125
1742308741,857378461,0.00146484375,0.1650390625,0.87109375,-1.28173828125,-5.92041015625,4.69970703125
1742308741,876822727,0.0185546875,0.0888671875,0.8505859375,3.60107421875,-6.2255859375,2.13623046875
1742308741,896589566,0.03466796875,0.1181640625,0.90771484375,-3.72314453125,2.3193359375,-1.5869140625
1742308741,916964525,-0.1044921875,-0.02734375,1.181640625,-4.0283203125,0.244140625,1.708984375
1742308741,936723524,-0.00439453125,-0.0048828125,0.958984375,3.5400390625,1.15966796875,3.11279296875
1742308741,951682522,0.0419921875,0.11767578125,0.68603515625,-3.47900390625,5.31005859375,0.8544921875
1742308741,976759301,-0.05517578125,0.07470703125,0.9384765625,-3.662109375,-1.40380859375,2.685546875
1742308741,996467578,-0.0458984375,0.06201171875,1.0244140625,-2.38037109375,7.50732421875,6.103515625
1742308742,16584082,-0.08544921875,0.00927734375,1.099609375,-5.18798828125,-1.28173828125,8.4228515625
1742308742,36709221,-0.0322265625,0.0771484375,0.962890625,2.5634765625,-3.5400390625,7.99560546875
1742308742,56606511,0.01025390625,0.08056640625,0.89990234375,-0.30517578125,-1.46484375,7.4462890625
1742308742,76610910,0.0146484375,0.03759765625,1.02490234375,4.94384765625,4.0283203125,6.9580078125
1742308742,96683790,-0.03759765625,0.1171875,1.076171875,9.94873046875,1.5869140625,6.34765625
1742308742,116627418,-0.08349609375,0.04638671875,1.15283203125,3.2958984375,3.96728515625,8.1787109375
1742308742,136712940,-0.0693359375,-0.01220703125,1.02490234375,3.47900390625,-1.89208984375,11.16943359375
1742308742,156701561,0.015625,0.08056640625,0.916015625,6.16455078125,-0.6103515625,8.1787109375
1742308742,176486495,0.04833984375,0.109375,0.79345703125,1.89208984375,-0.732421875,3.173828125
1742308742,196557904,-0.013671875,0.19970703125,0.90576171875,-3.60107421875,2.197265625,2.86865234375
1742308742,216531581,-0.1650390625,0.17041015625,1.02880859375,-1.46484375,-3.72314453125,6.8359375
1742308742,236803637,-0.0625,0.0654296875,1.05029296875,2.25830078125,-3.72314453125,8.544921875
1742308742,257136432,-0.00048828125,0.04541015625,0.8671875,6.16455078125,-2.44140625,8.11767578125
1742308742,276638923,0.04931640625,0.0654296875,0.89306640625,-5.67626953125,1.8310546875,6.2255859375
1742308742,296894115,0.0478515625,0.01708984375,1.03125,-0.79345703125,3.47900390625,6.28662109375
1742308742,316651464,-0.0546875,0.11962890625,0.8115234375,3.0517578125,1.40380859375,7.568359375
1742308742,337201963,-0.0126953125,0.1337890625,0.81640625,-5.43212890625,2.685546875,6.34765625
1742308742,356961648,-0.05615234375,0.04541015625,1.05859375,-1.03759765625,2.5634765625,6.65283203125
1742308742,376577039,-0.0517578125,0.08544921875,1.0087890625,3.0517578125,4.82177734375,9.33837890625
1742308742,391597146,-0.15283203125,0.10986328125,1.072265625,2.86865234375,-2.0751953125,10.25390625
1742308742,416610124,0.01318359375,0.06494140625,0.99462890625,0.30517578125,0.732421875,8.6669921875
1742308742,431968933,-0.01904296875,0.02294921875,0.966796875,-0.6103515625,1.220703125,7.4462890625
1742308742,456547814,-0.0224609375,0.0009765625,1.07373046875,6.16455078125,-0.3662109375,5.859375
1742308742,476546228,-0.0205078125,0.08154296875,0.97412109375,7.38525390625,2.50244140625,5.7373046875
1742308742,496627589,0.01953125,0.06689453125,0.8291015625,-2.5634765625,-2.8076171875,5.79833984375
1742308742,516558512,0.08984375,0.1015625,0.96044921875,-0.79345703125,2.44140625,4.2724609375
1742308742,532448638,0.0146484375,0.1484375,0.96142578125,0.9765625,1.708984375,2.99072265625
1742308742,557046496,-0.03515625,0.12451171875,0.94873046875,-3.47900390625,3.23486328125,1.15966796875
1742308742,576599228,-0.05908203125,0.080078125,1.04443359375,-3.41796875,2.5634765625,0.732421875
1742308742,596474501,-0.16650390625,0.0732421875,1.07080078125,4.150390625,-4.33349609375,2.74658203125
1742308742,616569559,-0.07177734375,0.0302734375,0.8896484375,2.5634765625,-6.9580078125,4.21142578125
1742308742,636724907,-0.025390625,0.08203125,0.88720703125,-7.6904296875,0.3662109375,1.3427734375
1742308742,651735446,0.01123046875,0.04150390625,1.12939453125,-0.67138671875,1.15966796875,0.244140625
1742308742,676758441,-0.017578125,0.06689453125,0.8974609375,-0.54931640625,2.44140625,0.18310546875
1742308742,696643506,-0.05029296875,0.0927734375,0.91796875,-1.8310546875,2.197265625,-0.42724609375
1742308742,716452729,-0.1279296875,0.05517578125,0.98828125,-4.0283203125,0.06103515625,2.9296875
1742308742,736704849,-0.03271484375,0.0390625,1.08251953125,-4.150390625,2.50244140625,4.0283203125
1742308742,756503447,-0.037109375,0.05810546875,0.98681640625,-2.3193359375,-0.91552734375,2.74658203125
1742308742,776536486,-0.01904296875,0.11572265625,1.01025390625,1.28173828125,0.3662109375,4.69970703125
1742308742,796591574,-0.0322265625,0.09619140625,0.9150390625,-0.9765625,-6.65283203125,2.9296875
1742308742,816724297,0.068359375,0.08251953125,0.92138671875,-1.953125,1.77001953125,0.3662109375
1742308742,836569233,-0.06787109375,0.08935546875,1.05029296875,6.8359375,1.0986328125,2.3193359375
1742308742,856697573,-0.07763671875,0.08984375,0.94921875,3.5400390625,-4.0283203125,6.77490234375
1742308742,876541580,0.00927734375,-0.009765625,1.10986328125,3.173828125,5.2490234375,7.14111328125
1742308742,896490008,-0.04052734375,0.0400390625,1.00634765625,9.21630859375,1.5869140625,5.55419921875
1742308742,916533800,-0.021484375,0.11669921875,0.89208984375,3.90625,1.0986328125,3.11279296875
1742308742,936667804,-0.02978515625,0.08154296875,1.01953125,-4.2724609375,1.77001953125,2.5634765625
1742308742,956593319,-0.08984375,0.05029296875,1.04833984375,-1.77001953125,0.42724609375,6.2255859375
1742308742,976460431,-0.0986328125,0.0322265625,1.111328125,5.859375,-12.3291015625,9.46044921875
1742308742,996573794,0.12841796875,0.14697265625,0.83056640625,0.91552734375,-0.06103515625,9.94873046875
1742308743,16688296,0.00830078125,0.0556640625,1.0166015625,-7.080078125,-0.79345703125,14.0380859375
1742308743,36751879,0.06884765625,0.06103515625,0.97021484375,-0.8544921875,-1.708984375,15.625
1742308743,56736931,0.04052734375,0.13330078125,0.8544921875,-1.28173828125,0.91552734375,18.49365234375
1742308743,76547321,-0.017578125,0.0693359375,0.96630859375,-4.150390625,0.91552734375,24.23095703125
1742308743,96442257,-0.03857421875,0.0439453125,1.0380859375,0.732421875,-1.3427734375,33.87451171875
1742308743,116661974,0.04736328125,0.10791015625,0.9873046875,5.79833984375,4.638671875,43.5791015625
1742308743,136974142,0.091796875,0.13427734375,0.9443359375,-2.13623046875,0.9765625,45.34912109375
1742308743,156714577,0.08203125,0.02099609375,1.13134765625,1.0986328125,1.0986328125,46.56982421875
1742308743,176639306,0.03466796875,0.06005859375,0.97802734375,5.37109375,4.94384765625,44.677734375
1742308743,196584229,0.02490234375,0.13818359375,0.91552734375,-0.91552734375,-2.99072265625,44.677734375
1742308743,216575649,0.119140625,0.02880859375,1.060546875,-0.06103515625,8.23974609375,42.6025390625
1742308743,236847848,-0.01123046875,0.01708984375,1.1015625,11.65771484375,0.42724609375,42.17529296875
1742308743,256873669,-0.00146484375,0.15966796875,0.90283203125,4.0283203125,-0.6103515625,42.3583984375
1742308743,276783262,0.0810546875,0.1015625,0.92236328125,-3.72314453125,3.84521484375,43.9453125
1742308743,296758650,0.03662109375,0.04052734375,0.8466796875,-5.06591796875,3.23486328125,46.142578125
1742308743,316597424,0.0751953125,0.09326171875,0.9130859375,0.91552734375,-0.18310546875,45.83740234375
1742308743,336628046,0.130859375,0.20703125,0.85302734375,0.54931640625,2.3193359375,42.236328125
1742308743,356750991,0.02099609375,0.103515625,0.9736328125,-4.0283203125,3.5400390625,41.80908203125
1742308743,376641319,0.01806640625,0.056640625,0.91552734375,-0.3662109375,-0.732421875,43.76220703125
1742308743,396575265,0.0029296875,0.13134765625,0.76513671875,-4.7607421875,-0.54931640625,44.37255859375
1742308743,416533308,0.05224609375,0.1474609375,0.7880859375,-4.150390625,-2.13623046875,42.724609375
1742308743,436578170,0.0595703125,0.10205078125,0.94580078125,0.732421875,1.15966796875,42.6025390625
1742308743,456900259,0.03369140625,0.072265625,0.9375,1.8310546875,0.9765625,41.9921875
1742308743,476492112,0.08056640625,0.11181640625,1.07275390625,1.03759765625,1.52587890625,39.85595703125
1742308743,496509357,-0.0537109375,0.046875,1.09521484375,3.60107421875,3.90625,41.3818359375
1742308743,516596397,-0.00244140625,-0.01611328125,0.96044921875,5.0048828125,6.16455078125,39.794921875
1742308743,536739823,0.0576171875,0.03173828125,1.06396484375,2.13623046875,2.25830078125,38.57421875
1742308743,556727659,0.01904296875,0.041015625,1.12255859375,5.37109375,3.662109375,37.04833984375
1742308743,576563489,0.0205078125,0.11279296875,1.03857421875,8.544921875,-1.64794921875,32.40966796875
1742308743,596766918,0.0791015625,0.09326171875,0.98291015625,1.8310546875,1.77001953125,28.50341796875
1742308743,616484247,-0.041015625,0.0185546875,1.009765625,-4.7607421875,3.41796875,29.052734375
1742308743,636425649,-0.03466796875,0.0302734375,1.02587890625,-0.9765625,6.591796875,30.33447265625
1742308743,656602133,-0.08447265625,0.07177734375,1.09375,5.4931640625,-5.18798828125,32.5927734375
1742308743,676512206,0.10302734375,0.17236328125,0.984375,7.50732421875,1.220703125,31.31103515625
1742308743,696426183,0.03759765625,0.1748046875,0.96875,-3.7841796875,4.94384765625,30.2734375
1742308743,716538248,0.02880859375,0.046875,1.068359375,-0.91552734375,5.615234375,31.55517578125
1742308743,736595238,0.025390625,0.078125,0.828125,1.3427734375,2.38037109375,29.1748046875
1742308743,757011987,-0.091796875,0.09423828125,0.82861328125,-4.150390625,0.244140625,29.296875
1742308743,776643905,-0.0458984375,0.1123046875,1.1064453125,-6.04248046875,-2.50244140625,32.28759765625
1742308743,797078030,-0.03369140625,0.0380859375,1.29736328125,3.23486328125,0.1220703125,33.5693359375
1742308743,816973479,0.0146484375,-0.0068359375,0.96484375,5.92041015625,1.220703125,32.1044921875
1742308743,836588757,0.01220703125,0.09521484375,0.88525390625,-3.0517578125,2.74658203125,30.94482421875
1742308743,856692149,0.02099609375,0.05224609375,1.07666015625,-2.38037109375,1.77001953125,31.982421875
1742308743,876775317,-0.03515625,0.0859375,0.93603515625,3.47900390625,-0.6103515625,31.1279296875
1742308743,896628811,0.0107421875,0.18798828125,1.0107421875,0.48828125,-1.15966796875,30.029296875
1742308743,916749293,0.078125,0.05859375,1.15869140625,7.50732421875,4.82177734375,28.38134765625
1742308743,936846093,0.05224609375,0.0263671875,0.92724609375,6.89697265625,1.953125,26.0009765625
1742308743,956669186,0.04443359375,0.029296875,0.76953125,-2.86865234375,4.57763671875,24.7802734375
1742308743,976541530,-0.04833984375,-0.00244140625,1.005859375,-5.859375,1.64794921875,24.35302734375
1742308743,996585080,-0.0146484375,0.09814453125,0.962890625,-0.91552734375,-5.37109375,25.7568359375
1742308744,16681197,0.02294921875,0.140625,0.86865234375,0.8544921875,-5.43212890625,23.0712890625
1742308744,36675640,0.09423828125,0.1123046875,0.8408203125,-1.0986328125,11.04736328125,20.56884765625
1742308744,56550431,-0.05908203125,0.14599609375,1.12451171875,4.82177734375,-2.8076171875,21.6064453125
1742308744,76622221,0.0322265625,0.1611328125,0.966796875,3.96728515625,3.5400390625,22.39990234375
1742308744,96609336,0.00537109375,0.11181640625,0.7646484375,-1.8310546875,2.01416015625,23.86474609375
1742308744,116514848,0.01708984375,0.048828125,0.86083984375,-7.26318359375,0.732421875,22.64404296875
1742308744,136612847,-0.05908203125,0.037109375,1.13720703125,-0.67138671875,4.39453125,22.64404296875
1742308744,156935975,-0.05712890625,0.05029296875,1.16650390625,3.173828125,-0.18310546875,22.4609375
1742308744,176670920,-0.0712890625,0.01220703125,1.04833984375,-2.0751953125,-1.52587890625,22.64404296875
1742308744,196543567,0.0185546875,0.07568359375,0.9609375,-0.18310546875,-0.42724609375,22.39990234375
1742308744,216737570,0.0263671875,0.0654296875,0.89013671875,2.99072265625,0.18310546875,22.4609375
1742308744,236812112,-0.0146484375,0.11279296875,0.89404296875,-0.48828125,-1.89208984375,22.88818359375
1742308744,256839900,0.05712890625,0.10400390625,1.0478515625,-2.0751953125,2.74658203125,22.5830078125
1742308744,276724260,0.03466796875,0.1650390625,1.10986328125,6.8359375,0.0,21.8505859375
1742308744,296862036,0.009765625,0.11474609375,0.90283203125,7.50732421875,1.0986328125,21.66748046875
1742308744,316975396,0.0439453125,0.0673828125,0.8427734375,-3.41796875,2.685546875,20.20263671875
1742308744,337046514,-0.0732421875,-0.02392578125,0.9892578125,-2.8076171875,-0.91552734375,24.84130859375
1742308744,351864956,0.0439453125,0.01416015625,1.0595703125,1.15966796875,-2.74658203125,29.052734375
1742308744,376768799,0.08984375,0.15673828125,0.92333984375,1.89208984375,-3.23486328125,28.1982421875
1742308744,396677767,0.0517578125,0.25048828125,0.88671875,-4.57763671875,2.01416015625,29.11376953125
1742308744,416614128,0.03564453125,0.154296875,0.83837890625,-2.197265625,1.5869140625,40.10009765625
1742308744,437131727,0.107421875,0.0703125,0.88916015625,0.732421875,0.79345703125,51.81884765625
1742308744,456579749,-0.048828125,0.08984375,1.0205078125,3.173828125,0.48828125,59.75341796875
1742308744,471847072,0.05078125,0.0810546875,1.06591796875,-0.8544921875,4.2724609375,68.05419921875
1742308744,496866247,0.119140625,0.09375,1.138671875,4.5166015625,5.859375,65.61279296875
1742308744,516870259,0.06396484375,0.11669921875,0.9384765625,3.96728515625,8.056640625,63.78173828125
1742308744,536732729,-0.0458984375,0.02392578125,0.91357421875,-3.90625,5.18798828125,65.5517578125
1742308744,556704611,0.09765625,-0.02880859375,0.99658203125,1.89208984375,-0.06103515625,65.5517578125
1742308744,576694607,0.1337890625,0.10107421875,0.8935546875,7.4462890625,0.79345703125,62.56103515625
1742308744,596716827,0.1279296875,0.09130859375,0.958984375,-0.3662109375,-0.48828125,60.05859375
1742308744,616907854,0.10498046875,0.0185546875,1.0302734375,4.08935546875,0.79345703125,60.05859375
1742308744,636685233,0.103515625,0.05419921875,0.81591796875,3.72314453125,6.4697265625,60.72998046875
1742308744,651619039,0.052734375,0.11376953125,0.84326171875,-1.40380859375,0.42724609375,62.07275390625
1742308744,676649126,0.02734375,0.04150390625,1.04345703125,0.3662109375,-3.90625,63.4765625
1742308744,696730965,0.177734375,0.04638671875,1.140625,9.8876953125,5.2490234375,59.87548828125
1742308744,716782210,0.06494140625,0.05712890625,0.9541015625,-2.01416015625,7.2021484375,59.50927734375
1742308744,736893842,0.12451171875,-0.013671875,1.16455078125,2.197265625,12.939453125,60.97412109375
1742308744,756738648,-0.0107421875,0.07275390625,0.9345703125,1.708984375,4.2724609375,60.546875
1742308744,776763300,-0.0087890625,0.06396484375,1.01416015625,2.01416015625,8.36181640625,61.03515625
1742308744,796883316,-0.0009765625,0.1240234375,0.9609375,-2.62451171875,3.41796875,61.34033203125
1742308744,816748698,0.0146484375,0.14111328125,1.1328125,1.64794921875,3.84521484375,61.03515625
1742308744,836836361,0.1005859375,0.1259765625,0.98876953125,4.69970703125,3.35693359375,55.60302734375
1742308744,856660494,0.08642578125,0.01513671875,0.9404296875,4.69970703125,7.568359375,48.52294921875
1742308744,876631032,0.05126953125,0.08056640625,0.87548828125,4.21142578125,8.4228515625,41.32080078125
1742308744,896714759,-0.0634765625,0.15478515625,1.01904296875,2.38037109375,-0.18310546875,40.8935546875
1742308744,917487087,0.0439453125,0.203125,0.9560546875,3.72314453125,-0.67138671875,42.48046875
1742308744,936854499,0.02490234375,0.10986328125,0.8955078125,5.79833984375,5.4931640625,41.68701171875
1742308744,956695177,0.1259765625,0.0654296875,0.89794921875,2.685546875,3.47900390625,33.935546875
1742308744,976654099,0.013671875,0.09521484375,0.85595703125,-7.99560546875,2.5634765625,28.99169921875
1742308744,996800164,-0.06640625,0.00244140625,1.0078125,-4.7607421875,-2.44140625,28.74755859375
1742308745,16693664,-0.01806640625,-0.06494140625,1.08544921875,5.43212890625,0.30517578125,29.23583984375
1742308745,32068722,0.02734375,0.08984375,1.0244140625,8.9111328125,-2.62451171875,23.86474609375
1742308745,56708822,-0.04248046875,0.185546875,0.970703125,-9.58251953125,3.11279296875,21.8505859375
1742308745,76811253,0.01953125,0.0546875,1.00830078125,-7.32421875,0.244140625,23.681640625
1742308745,96729549,0.02880859375,0.078125,0.81640625,1.52587890625,2.0751953125,22.3388671875
1742308745,117030259,0.013671875,0.07666015625,0.77587890625,0.30517578125,1.64794921875,21.54541015625
1742308745,136939467,-0.0322265625,0.12890625,0.8896484375,-0.1220703125,1.03759765625,22.76611328125
1742308745,156787200,-0.05126953125,0.15771484375,0.95703125,-1.46484375,3.173828125,25.08544921875
1742308745,176777819,0.02197265625,0.09521484375,1.0146484375,-1.46484375,0.3662109375,25.7568359375
1742308745,197175556,-0.00390625,0.05810546875,0.97314453125,-0.732421875,1.708984375,25.5126953125
1742308745,216750896,-0.0517578125,0.01025390625,1.05810546875,-0.54931640625,-5.859375,28.6865234375
1742308745,236707145,0.09912109375,-0.00927734375,0.93408203125,1.3427734375,3.173828125,25.45166015625
1742308745,256883691,0.0078125,0.0166015625,0.9736328125,1.46484375,3.2958984375,25.32958984375
1742308745,276813443,0.03759765625,0.11572265625,1.06005859375,4.69970703125,7.14111328125,26.06201171875
1742308745,296914658,-0.01513671875,0.10302734375,1.15869140625,4.5166015625,1.3427734375,27.28271484375
1742308745,316818649,-0.048828125,0.1416015625,1.00048828125,4.21142578125,3.662109375,26.85546875
1742308745,336668047,-0.03662109375,0.07861328125,0.8720703125,-1.5869140625,1.0986328125,25.2685546875
1742308745,356648809,-0.109375,0.02197265625,1.02294921875,-3.96728515625,-6.04248046875,27.4658203125
1742308745,376863628,0.03125,0.00830078125,1.10009765625,3.47900390625,-3.662109375,26.0009765625
1742308745,396755971,0.169921875,0.1435546875,0.89990234375,3.41796875,6.8359375,20.44677734375
1742308745,417059625,0.0205078125,0.0712890625,1.0810546875,-7.99560546875,7.50732421875,20.263671875
1742308745,437024067,-0.19384765625,-0.06005859375,1.21337890625,2.5634765625,-1.77001953125,24.5361328125
1742308745,456912986,-0.03173828125,0.00634765625,0.822265625,3.2958984375,-4.57763671875,26.611328125
1742308745,476670476,-0.02880859375,0.08837890625,0.78564453125,-8.4228515625,1.15966796875,22.4609375
1742308745,496822861,-0.01513671875,0.11962890625,0.95458984375,-10.1318359375,-5.4931640625,20.69091796875
1742308745,516695971,0.01416015625,0.01611328125,1.22412109375,0.6103515625,7.26318359375,20.6298828125
1742308745,537350390,-0.02197265625,0.04443359375,1.017578125,3.35693359375,2.99072265625,21.91162109375
1742308745,557180043,0.01416015625,0.033203125,0.96337890625,-4.39453125,3.72314453125,19.59228515625
1742308745,571724702,-0.0537109375,0.00439453125,1.02734375,-5.0048828125,2.3193359375,18.00537109375
1742308745,597015483,0.02197265625,0.0556640625,1.03076171875,4.82177734375,-2.44140625,15.93017578125
1742308745,616991989,0.06103515625,0.111328125,0.9560546875,0.9765625,-2.5634765625,16.05224609375
1742308745,637363069,0.095703125,0.1748046875,0.90380859375,-1.8310546875,5.55419921875,12.8173828125
1742308745,657071342,0.0400390625,0.15087890625,0.876953125,3.7841796875,3.90625,9.82666015625
1742308745,671765575,-0.1171875,0.06787109375,0.857421875,4.57763671875,-0.06103515625,11.3525390625
1742308745,691880166,-0.10107421875,0.0625,0.9951171875,-1.46484375,-0.91552734375,14.46533203125
1742308745,716772116,-0.0390625,0.03369140625,1.11279296875,-1.40380859375,-2.25830078125,18.798828125
1742308745,731692053,0.02880859375,0.0302734375,1.01708984375,2.01416015625,-2.74658203125,18.5546875
1742308745,756690375,0.09375,0.00341796875,0.88330078125,-1.15966796875,-0.6103515625,16.90673828125
1742308745,776560733,0.08544921875,0.05419921875,1.08740234375,-5.4931640625,9.21630859375,12.8173828125
1742308745,796544823,-0.06982421875,0.08544921875,1.01123046875,-2.0751953125,-1.0986328125,15.869140625
1742308745,816589172,-0.0966796875,0.0244140625,1.111328125,7.62939453125,1.40380859375,20.20263671875
1742308745,836774486,-0.0810546875,-0.02783203125,0.9912109375,7.75146484375,-4.94384765625,23.01025390625
1742308745,856631788,0.02099609375,0.0859375,0.97802734375,0.0,2.44140625,21.17919921875
1742308745,876666312,0.0439453125,0.12109375,1.09814453125,-4.21142578125,1.8310546875,21.6064453125
1742308745,896590400,0.01025390625,0.0771484375,1.0146484375,0.244140625,0.42724609375,23.25439453125
1742308745,916647133,0.04736328125,0.0498046875,0.89111328125,2.197265625,-0.732421875,25.87890625
1742308745,936668281,0.0234375,0.142578125,0.84130859375,4.7607421875,5.4931640625,25.20751953125
1742308745,956695125,-0.05029296875,0.13818359375,0.89892578125,-2.01416015625,-4.45556640625,25.634765625
1742308745,976696752,0.05322265625,0.0654296875,1.07861328125,-0.3662109375,2.86865234375,24.71923828125
1742308745,996645641,0.0439453125,0.03466796875,0.9814453125,3.0517578125,-2.74658203125,23.193359375
1742308746,16698907,-0.02001953125,0.11865234375,0.85009765625,3.41796875,-7.87353515625,26.7333984375
1742308746,37169463,0.14990234375,0.2353515625,0.82861328125,4.5166015625,-2.3193359375,33.8134765625
1742308746,56581293,0.16650390625,0.111328125,0.8037109375,1.28173828125,-2.5634765625,45.22705078125
1742308746,76672475,0.13134765625,0.08740234375,0.97412109375,-1.15966796875,3.96728515625,53.28369140625
1742308746,96710824,0.0322265625,0.11181640625,1.052734375,3.72314453125,-1.220703125,60.1806640625
1742308746,116877561,0.1728515625,0.22900390625,0.89453125,-0.79345703125,11.71875,59.87548828125
1742308746,136679389,0.00634765625,0.1005859375,0.80322265625,-3.5400390625,-0.3662109375,61.4013671875
1742308746,156835501,0.08740234375,0.150390625,0.8486328125,-1.03759765625,5.06591796875,62.43896484375
1742308746,176684051,0.00048828125,0.15771484375,0.9287109375,-2.685546875,0.79345703125,62.80517578125
1742308746,196690686,0.0537109375,0.1181640625,0.97705078125,-2.685546875,3.2958984375,63.65966796875
1742308746,216848175,0.10400390625,0.08154296875,1.037109375,-1.03759765625,4.21142578125,64.208984375
1742308746,236857818,0.07275390625,0.04052734375,1.05078125,4.94384765625,0.91552734375,65.4296875
1742308746,256606364,0.01513671875,0.0498046875,0.94970703125,1.46484375,1.28173828125,63.8427734375
1742308746,276556198,0.10986328125,-0.00146484375,0.94287109375,2.38037109375,4.8828125,63.29345703125
1742308746,296595090,0.1015625,0.08837890625,0.8095703125,-0.54931640625,3.173828125,62.744140625
1742308746,316721121,0.208984375,0.0888671875,0.9677734375,0.06103515625,2.50244140625,62.43896484375
1742308746,336785583,0.107421875,0.1474609375,0.88818359375,2.50244140625,7.2021484375,61.5234375
1742308746,356627828,0.0869140625,0.23291015625,0.75927734375,0.30517578125,5.06591796875,61.8896484375
1742308746,376731299,0.1142578125,0.11376953125,0.853515625,-4.45556640625,4.69970703125,63.65966796875
1742308746,396467781,-0.05126953125,0.0234375,1.03466796875,2.8076171875,-2.44140625,64.5751953125
1742308746,416652630,0.07470703125,0.06396484375,1.1376953125,4.82177734375,2.01416015625,62.80517578125
1742308746,436749381,0.037109375,0.1015625,1.0888671875,-2.25830078125,3.5400390625,61.279296875
1742308746,456657228,0.123046875,-0.02734375,1.115234375,3.662109375,6.65283203125,64.63623046875
1742308746,476719962,0.02099609375,-0.0107421875,0.90234375,6.04248046875,4.7607421875,65.0634765625
1742308746,496676963,0.00146484375,0.04296875,0.96923828125,1.0986328125,2.62451171875,66.40625
1742308746,516708431,0.06005859375,0.04736328125,1.2236328125,1.953125,1.46484375,69.76318359375
1742308746,536751612,0.009765625,0.0283203125,1.29931640625,9.70458984375,0.9765625,69.51904296875
1742308746,556576993,0.10302734375,0.08056640625,1.08056640625,5.55419921875,4.21142578125,66.22314453125
1742308746,576609549,0.03369140625,0.06201171875,0.84326171875,0.8544921875,-0.9765625,64.51416015625
1742308746,596748285,0.078125,0.1181640625,0.7841796875,0.244140625,2.62451171875,65.73486328125
1742308746,616666021,0.220703125,0.19482421875,0.94970703125,2.8076171875,5.06591796875,63.1103515625
1742308746,636846199,0.111328125,0.138671875,1.12890625,5.18798828125,3.173828125,61.4013671875
1742308746,656605273,0.08642578125,0.12158203125,1.0205078125,6.8359375,6.16455078125,59.50927734375
1742308746,676619941,-0.029296875,0.16015625,0.9150390625,5.0048828125,-0.06103515625,60.85205078125
1742308746,696567790,0.1044921875,0.2197265625,1.0078125,4.8828125,4.2724609375,60.60791015625
1742308746,716789505,0.0908203125,0.17724609375,1.0087890625,-0.06103515625,4.94384765625,61.46240234375
1742308746,736702249,0.06640625,0.0126953125,0.89404296875,4.39453125,-4.39453125,59.14306640625
1742308746,756585616,0.21484375,0.0947265625,0.841796875,2.8076171875,5.9814453125,55.6640625
1742308746,776709887,0.04541015625,0.05126953125,1.03564453125,0.91552734375,9.21630859375,58.41064453125
1742308746,796633159,0.064453125,0.03564453125,1.14599609375,2.197265625,7.4462890625,62.1337890625
1742308746,816727606,-0.01318359375,0.0009765625,1.1357421875,-1.5869140625,5.4931640625,66.46728515625
1742308746,836961225,0.00732421875,-0.0400390625,1.158203125,-5.4931640625,1.89208984375,67.19970703125
1742308746,856596167,0.00830078125,0.01171875,1.28466796875,2.3193359375,4.39453125,63.65966796875
1742308746,876695062,0.02099609375,0.06494140625,1.0673828125,0.9765625,3.11279296875,63.3544921875
1742308746,896961866,0.14306640625,0.0869140625,0.8720703125,2.01416015625,3.84521484375,61.03515625
1742308746,917718416,0.10693359375,0.0830078125,0.880859375,2.197265625,0.6103515625,58.349609375
1742308746,936621876,0.07275390625,0.03125,1.10791015625,-0.732421875,1.15966796875,56.640625
1742308746,956641440,-0.01708984375,-0.02001953125,1.27978515625,6.16455078125,4.39453125,62.3779296875
1742308746,976654859,0.044921875,-0.04296875,1.203125,10.3759765625,5.126953125,61.58447265625
1742308746,996666647,-0.01318359375,-0.02978515625,0.9443359375,2.38037109375,2.44140625,61.03515625
1742308747,16673816,0.09228515625,0.0068359375,0.96728515625,-3.7841796875,0.8544921875,62.80517578125
1742308747,36731285,-0.00244140625,0.02001953125,1.025390625,-0.1220703125,2.9296875,63.96484375
1742308747,56738481,0.0849609375,0.08349609375,1.16015625,4.39453125,0.18310546875,59.02099609375
1742308747,76642313,0.08251953125,0.0400390625,1.14599609375,6.65283203125,1.0986328125,53.7109375
1742308747,96658789,0.14892578125,0.0712890625,1.20166015625,2.44140625,9.46044921875,52.91748046875
1742308747,116947819,-0.05078125,0.05517578125,1.15771484375,1.64794921875,7.50732421875,56.396484375
1742308747,136613243,-0.02685546875,0.041015625,0.7646484375,-0.48828125,0.30517578125,58.349609375
1742308747,156695193,0.1005859375,0.05419921875,0.6884765625,-4.8828125,0.30517578125,56.57958984375
1742308747,176797689,0.0830078125,0.0673828125,0.724609375,-3.60107421875,1.8310546875,57.9833984375
1742308747,196873719,0.13232421875,0.02978515625,0.890625,-3.173828125,4.82177734375,57.12890625
1742308747,217260096,-0.0244140625,0.0556640625,0.884765625,-3.35693359375,2.9296875,55.6640625
1742308747,236647110,0.115234375,0.1396484375,0.83447265625,-1.64794921875,6.4697265625,50.78125
1742308747,256669634,-0.00146484375,0.0927734375,0.84423828125,3.173828125,0.6103515625,44.25048828125
1742308747,276637949,-0.0009765625,0.11474609375,0.96142578125,0.79345703125,0.9765625,39.61181640625
1742308747,296732860,-0.00146484375,0.0224609375,1.19140625,1.46484375,3.5400390625,37.17041015625
1742308747,317175911,0.05029296875,0.07666015625,1.1953125,6.77490234375,6.591796875,35.64453125
1742308747,331790950,0.00439453125,-0.05810546875,1.18359375,11.65771484375,6.77490234375,31.06689453125
1742308747,351833059,-0.1171875,0.00341796875,1.0771484375,3.173828125,4.57763671875,29.23583984375
1742308747,376738186,-0.08935546875,0.017578125,1.09228515625,-7.38525390625,5.2490234375,25.146484375
1742308747,396684900,-0.06201171875,0.060546875,1.10791015625,-1.64794921875,1.953125,23.25439453125
1742308747,416759874,-0.060546875,0.16015625,1.01953125,9.09423828125,-2.3193359375,14.5263671875
1742308747,436905507,0.12939453125,0.2265625,0.87646484375,3.72314453125,3.35693359375,6.77490234375
1742308747,451742570,-0.05615234375,0.09521484375,0.87255859375,-5.2490234375,6.34765625,3.662109375
1742308747,476939867,-0.01953125,0.03466796875,0.91650390625,-1.220703125,-3.35693359375,3.41796875
1742308747,491744737,-0.01806640625,0.1005859375,0.9345703125,-2.44140625,2.5634765625,3.23486328125
1742308747,511798239,-0.09228515625,0.03125,0.9658203125,-7.38525390625,-3.11279296875,5.92041015625
1742308747,536624963,-0.0078125,-0.02587890625,1.1328125,-0.42724609375,-1.15966796875,7.14111328125
1742308747,556644031,-0.080078125,0.0947265625,0.97998046875,4.150390625,3.2958984375,4.5166015625
1742308747,576684892,-0.04638671875,0.09228515625,0.99609375,-4.45556640625,-1.89208984375,3.2958984375
1742308747,597132903,0.0546875,0.041015625,0.98193359375,-0.91552734375,8.72802734375,0.91552734375
1742308747,616737077,0.005859375,0.076171875,0.83984375,1.953125,-0.54931640625,-1.5869140625
1742308747,636704976,-0.046875,0.181640625,0.9033203125,0.8544921875,3.23486328125,-4.94384765625
1742308747,656812815,-0.06005859375,0.173828125,1.0126953125,-0.30517578125,-3.23486328125,-5.92041015625
1742308747,676640037,0.03076171875,0.11865234375,0.97216796875,-1.953125,1.708984375,-7.38525390625
1742308747,696722179,-0.0263671875,0.0615234375,0.95361328125,0.3662109375,2.62451171875,-8.056640625
1742308747,717024329,-0.09326171875,-0.01416015625,0.892578125,3.7841796875,-3.47900390625,-7.8125
1742308747,736687417,-0.0615234375,0.05419921875,0.779296875,-0.9765625,-2.13623046875,-5.43212890625
1742308747,756665844,0.0078125,0.08251953125,0.923828125,-0.9765625,4.8828125,-7.01904296875
1742308747,776708305,-0.11279296875,0.13427734375,1.0390625,1.220703125,-7.14111328125,-6.591796875
1742308747,796698284,-0.046875,0.021484375,1.09912109375,2.50244140625,-3.23486328125,-4.33349609375
1742308747,816759082,0.0654296875,-0.0126953125,0.93212890625,4.21142578125,5.4931640625,-7.26318359375
1742308747,836635425,-0.041015625,0.07373046875,0.89892578125,-4.57763671875,1.46484375,-9.8876953125
1742308747,856610012,-0.06005859375,0.02099609375,1.12890625,-6.8359375,-0.48828125,-8.36181640625
1742308747,876644344,-0.07470703125,0.03076171875,1.06201171875,5.0048828125,-1.52587890625,-7.14111328125
