sec,nanosec,ax,ay,az,gx,gy,gz
1742308675,9594105,-0.08447265625,-0.013671875,0.9697265625,0.79345703125,-0.244140625,-0.30517578125
1742308675,34461141,-0.0869140625,-0.0048828125,0.9716796875,0.54931640625,0.6103515625,-0.06103515625
1742308675,54299065,-0.0869140625,-0.005859375,0.97314453125,0.67138671875,0.48828125,0.06103515625
1742308675,74233853,-0.0830078125,-0.005859375,0.9765625,0.3662109375,0.8544921875,-0.3662109375
1742308675,94421376,-0.0849609375,-0.0009765625,0.9716796875,0.18310546875,0.6103515625,-0.42724609375
1742308675,114342276,-0.07421875,-0.001953125,0.96923828125,0.42724609375,-0.1220703125,-0.3662109375
1742308675,134320423,-0.09521484375,-0.00732421875,0.97265625,0.42724609375,-0.244140625,0.06103515625
1742308675,154350699,-0.087890625,-0.01123046875,0.9658203125,-0.18310546875,-0.67138671875,0.244140625
1742308675,174268270,-0.08740234375,-0.00048828125,0.9814453125,0.244140625,-0.18310546875,-0.3662109375
1742308675,194374002,-0.07177734375,-0.0048828125,0.97509765625,0.67138671875,-0.3662109375,-0.42724609375
1742308675,214304853,-0.0830078125,-0.005859375,0.9677734375,0.6103515625,0.3662109375,-0.30517578125
1742308675,234560952,-0.09033203125,-0.0029296875,0.96875,0.42724609375,0.9765625,-0.06103515625
1742308675,254263260,-0.08203125,-0.0068359375,0.9697265625,0.30517578125,0.67138671875,-0.06103515625
1742308675,274228384,-0.09130859375,-0.00048828125,0.9794921875,0.18310546875,0.18310546875,-0.30517578125
1742308675,294758595,-0.08740234375,-0.0087890625,0.97998046875,0.3662109375,-0.18310546875,-0.244140625
1742308675,314475847,-0.091796875,-0.00341796875,0.97314453125,0.30517578125,-1.0986328125,-0.3662109375
1742308675,334554826,-0.08154296875,-0.001953125,0.96826171875,0.6103515625,-0.732421875,0.0
1742308675,349332053,-0.0810546875,-0.0068359375,0.98046875,0.79345703125,-0.3662109375,0.18310546875
1742308675,374483249,-0.08837890625,-0.00634765625,0.98193359375,0.48828125,0.67138671875,-0.18310546875
1742308675,394476149,-0.06396484375,-0.00048828125,0.9697265625,0.48828125,0.91552734375,-0.42724609375
1742308675,414730040,-0.07421875,-0.00146484375,0.9765625,0.48828125,0.9765625,-0.18310546875
1742308675,434391420,-0.091796875,-0.00244140625,0.9765625,0.6103515625,0.79345703125,-0.244140625
1742308675,454795263,-0.0908203125,-0.005859375,0.97314453125,0.91552734375,0.244140625,0.0
1742308675,474429603,-0.08837890625,-0.00830078125,0.97705078125,0.67138671875,-0.1220703125,-0.30517578125
1742308675,489555949,-0.0859375,-0.00341796875,0.9775390625,0.18310546875,-0.244140625,-0.30517578125
1742308675,514338602,-0.0888671875,0.0048828125,0.96875,0.0,-0.91552734375,0.0
1742308675,534513997,-0.08349609375,-0.001953125,0.97119140625,0.1220703125,-0.48828125,-0.06103515625
1742308675,555205616,-0.0908203125,-0.005859375,0.9814453125,0.244140625,-0.244140625,-0.1220703125
1742308675,574147797,-0.078125,-0.00634765625,0.9775390625,0.67138671875,-0.1220703125,-0.42724609375
1742308675,594293336,-0.07763671875,-0.00537109375,0.97265625,0.732421875,0.42724609375,-0.30517578125
1742308675,614627227,-0.087890625,-0.0009765625,0.97802734375,0.732421875,0.42724609375,-0.06103515625
1742308675,634714367,-0.08935546875,-0.0146484375,0.97265625,0.732421875,0.18310546875,0.0
1742308675,654459010,-0.0966796875,-0.00341796875,0.9755859375,0.732421875,0.1220703125,-0.18310546875
1742308675,674319238,-0.0849609375,-0.013671875,0.97998046875,0.54931640625,-0.18310546875,-0.244140625
1742308675,694260778,-0.07958984375,-0.00146484375,0.97509765625,0.18310546875,-0.30517578125,-0.18310546875
1742308675,714144141,-0.07763671875,-0.00732421875,0.97119140625,0.30517578125,0.3662109375,0.244140625
1742308675,734214737,-0.083984375,-0.0087890625,0.9833984375,0.48828125,0.30517578125,0.06103515625
1742308675,754223508,-0.083984375,-0.005859375,0.97705078125,0.54931640625,0.244140625,-0.3662109375
1742308675,774171896,-0.0732421875,0.00634765625,0.9736328125,0.6103515625,0.1220703125,-0.67138671875
1742308675,794146172,-0.07373046875,0.00244140625,0.97607421875,0.6103515625,-0.1220703125,-0.6103515625
1742308675,814048607,-0.07763671875,-0.0029296875,0.966796875,0.30517578125,0.1220703125,-0.30517578125
1742308675,834223458,-0.09521484375,-0.001953125,0.970703125,0.48828125,0.1220703125,-0.06103515625
1742308675,854233990,-0.0869140625,-0.01171875,0.9765625,0.79345703125,0.244140625,-0.06103515625
1742308675,874201130,-0.0869140625,-0.0087890625,0.98095703125,0.6103515625,-0.06103515625,-0.3662109375
1742308675,894201101,-0.0859375,-0.001953125,0.9677734375,0.54931640625,-0.30517578125,-0.244140625
1742308675,914264592,-0.08349609375,-0.00146484375,0.970703125,0.54931640625,-0.54931640625,-0.06103515625
1742308675,934291924,-0.08154296875,0.00244140625,0.97119140625,0.732421875,-0.06103515625,-0.1220703125
1742308675,954587863,-0.080078125,-0.00634765625,0.97314453125,0.48828125,-0.1220703125,-0.06103515625
1742308675,974194107,-0.10009765625,-0.005859375,0.978515625,0.06103515625,-0.244140625,-0.3662109375
1742308675,994157791,-0.0810546875,-0.00732421875,0.97900390625,0.18310546875,0.06103515625,-0.18310546875
1742308676,14317027,-0.0888671875,-0.0107421875,0.97705078125,0.67138671875,-0.06103515625,-0.06103515625
1742308676,34263976,-0.09619140625,-0.009765625,0.9814453125,1.15966796875,0.30517578125,-0.06103515625
1742308676,54216046,-0.08935546875,-0.0048828125,0.9775390625,1.0986328125,0.244140625,0.18310546875
1742308676,74237939,-0.0830078125,-0.001953125,0.97900390625,0.79345703125,0.3662109375,-0.3662109375
1742308676,94165112,-0.072265625,-0.001953125,0.97265625,0.244140625,0.42724609375,-0.54931640625
1742308676,111426401,-0.0927734375,-0.00146484375,0.97119140625,0.244140625,0.18310546875,-0.3662109375
1742308676,134214659,-0.0966796875,-0.01123046875,0.97607421875,0.48828125,0.48828125,0.0
1742308676,154373992,-0.09716796875,-0.0078125,0.9736328125,0.06103515625,-0.54931640625,0.1220703125
1742308676,174208526,-0.09619140625,-0.0048828125,0.9794921875,0.30517578125,-0.8544921875,-0.3662109375
1742308676,194212403,-0.07373046875,-0.0078125,0.9765625,0.42724609375,-0.67138671875,-0.67138671875
1742308676,214118136,-0.07421875,-0.00048828125,0.97412109375,0.6103515625,-0.06103515625,-0.18310546875
1742308676,234193469,-0.07568359375,-0.00390625,0.96630859375,0.91552734375,0.8544921875,-0.1220703125
1742308676,254349443,-0.09375,-0.0048828125,0.96875,0.732421875,0.91552734375,-0.1220703125
1742308676,274123592,-0.08447265625,-0.00146484375,0.974609375,0.3662109375,1.3427734375,-0.06103515625
1742308676,294126573,-0.0927734375,-0.00830078125,0.97021484375,0.0,0.244140625,-0.244140625
1742308676,314148435,-0.09130859375,-0.0009765625,0.974609375,0.18310546875,-0.18310546875,-0.244140625
1742308676,334211672,-0.0791015625,-0.0048828125,0.9677734375,0.30517578125,-0.9765625,-0.1220703125
1742308676,354261981,-0.09130859375,-0.0087890625,0.97607421875,0.48828125,-1.28173828125,0.06103515625
1742308676,374388706,-0.08642578125,-0.009765625,0.970703125,0.18310546875,-0.732421875,-0.06103515625
1742308676,394241480,-0.07861328125,-0.0029296875,0.97998046875,0.48828125,-0.54931640625,-0.244140625
1742308676,414268845,-0.06591796875,-0.00146484375,0.97265625,0.42724609375,0.48828125,-0.30517578125
1742308676,434312562,-0.08642578125,-0.00830078125,0.96875,0.3662109375,1.0986328125,0.0
1742308676,454318232,-0.0830078125,-0.0107421875,0.9755859375,0.6103515625,1.40380859375,-0.1220703125
1742308676,474469245,-0.080078125,-0.0107421875,0.97509765625,0.67138671875,1.03759765625,-0.244140625
1742308676,494388002,-0.09033203125,-0.00146484375,0.978515625,0.48828125,0.79345703125,-0.18310546875
1742308676,514243496,-0.08984375,-0.0126953125,0.96923828125,0.79345703125,0.06103515625,-0.1220703125
1742308676,534303981,-0.099609375,0.0029296875,0.9736328125,0.18310546875,-1.15966796875,0.18310546875
1742308676,554282354,-0.08544921875,-0.00048828125,0.9716796875,0.06103515625,-1.03759765625,0.1220703125
1742308676,574185880,-0.08837890625,-0.0087890625,0.974609375,-0.06103515625,-1.220703125,-0.18310546875
1742308676,594424285,-0.07958984375,-0.0068359375,0.97998046875,0.06103515625,-0.18310546875,-0.3662109375
1742308676,614387522,-0.072265625,-0.0068359375,0.9697265625,-0.244140625,-0.18310546875,-0.48828125
1742308676,634201415,-0.07373046875,-0.00439453125,0.970703125,0.79345703125,1.0986328125,-0.42724609375
1742308676,654240749,-0.08984375,-0.01416015625,0.9736328125,1.15966796875,0.79345703125,-0.06103515625
1742308676,674222226,-0.095703125,-0.0068359375,0.9755859375,0.9765625,0.9765625,-0.1220703125
1742308676,694161143,-0.08056640625,-0.0048828125,0.97314453125,0.732421875,0.6103515625,-0.48828125
1742308676,714406396,-0.09423828125,0.0,0.97998046875,0.67138671875,0.0,-0.244140625
1742308676,734915521,-0.09619140625,-0.0107421875,0.97216796875,0.244140625,-0.6103515625,0.0
1742308676,754318471,-0.0849609375,-0.0068359375,0.97119140625,-0.06103515625,-1.15966796875,-0.18310546875
1742308676,774854924,-0.08544921875,-0.01318359375,0.98046875,-0.06103515625,-1.220703125,-0.3662109375
1742308676,789507800,-0.0751953125,-0.00927734375,0.97900390625,0.06103515625,-0.732421875,-0.30517578125
1742308676,814350135,-0.0771484375,0.0,0.9736328125,0.18310546875,-0.54931640625,0.0
1742308676,834700892,-0.072265625,-0.0107421875,0.9775390625,0.91552734375,0.91552734375,-0.18310546875
1742308676,854290466,-0.09228515625,-0.00634765625,0.9853515625,0.91552734375,1.40380859375,-0.18310546875
1742308676,874234183,-0.08837890625,0.0009765625,0.97021484375,0.91552734375,1.708984375,-0.3662109375
1742308676,894177804,-0.078125,0.001953125,0.96923828125,0.3662109375,1.52587890625,-0.54931640625
1742308676,914196050,-0.08984375,0.00390625,0.97705078125,0.1220703125,0.244140625,-0.30517578125
1742308676,934262007,-0.09521484375,-0.00244140625,0.96728515625,0.1220703125,-0.30517578125,0.06103515625
1742308676,954331836,-0.09619140625,-0.00732421875,0.97509765625,0.244140625,-1.5869140625,-0.1220703125
1742308676,974242465,-0.087890625,-0.0107421875,0.98828125,0.48828125,-1.3427734375,-0.1220703125
1742308676,994575558,-0.10107421875,-0.00439453125,0.97900390625,-0.18310546875,-1.5869140625,-0.244140625
1742308677,14326765,-0.06787109375,0.0009765625,0.9658203125,0.06103515625,-0.67138671875,-0.48828125
1742308677,34403540,-0.06494140625,-0.00048828125,0.98193359375,0.9765625,0.6103515625,-0.3662109375
1742308677,54811290,-0.08740234375,-0.00830078125,0.978515625,1.220703125,1.40380859375,-0.244140625
1742308677,74139106,-0.09130859375,-0.005859375,0.96630859375,0.732421875,1.46484375,-0.3662109375
1742308677,90697517,-0.091796875,0.0087890625,0.97802734375,0.732421875,1.15966796875,-0.48828125
1742308677,114112400,-0.0888671875,-0.0078125,0.97412109375,0.54931640625,0.54931640625,-0.18310546875
1742308677,129394845,-0.10791015625,-0.001953125,0.9697265625,0.42724609375,-0.9765625,0.0
1742308677,149705347,-0.091796875,-0.00634765625,0.9716796875,0.42724609375,-0.9765625,-0.06103515625
1742308677,174370757,-0.08740234375,-0.00439453125,0.98583984375,0.0,-1.8310546875,-0.244140625
1742308677,194116492,-0.06884765625,0.00048828125,0.97119140625,-0.30517578125,-1.46484375,-0.3662109375
1742308677,214734066,-0.06591796875,-0.0048828125,0.970703125,0.1220703125,-0.244140625,-0.18310546875
1742308677,234473017,-0.076171875,-0.00634765625,0.9775390625,0.54931640625,0.79345703125,-0.18310546875
1742308677,254429184,-0.078125,-0.013671875,0.98046875,1.0986328125,1.46484375,-0.1220703125
1742308677,274283304,-0.08837890625,-0.0087890625,0.970703125,0.91552734375,1.89208984375,-0.18310546875
1742308677,289187413,-0.0908203125,0.00341796875,0.9736328125,0.42724609375,1.220703125,-0.30517578125
1742308677,314388309,-0.080078125,-0.0009765625,0.96923828125,0.54931640625,0.67138671875,-0.1220703125
1742308677,334661660,-0.09716796875,-0.001953125,0.97216796875,0.30517578125,-0.1220703125,-0.06103515625
1742308677,354223075,-0.095703125,-0.00830078125,0.96435546875,0.06103515625,-1.5869140625,-0.30517578125
1742308677,374276458,-0.07861328125,-0.0087890625,0.97802734375,0.244140625,-1.40380859375,-0.1220703125
1742308677,394227633,-0.08642578125,-0.013671875,0.98193359375,-0.1220703125,-1.40380859375,0.0
1742308677,414201144,-0.0869140625,-0.00146484375,0.9755859375,0.18310546875,-0.06103515625,-0.244140625
1742308677,434231999,-0.06787109375,-0.00634765625,0.9697265625,0.54931640625,0.244140625,-0.244140625
1742308677,454237638,-0.07763671875,-0.0087890625,0.97265625,0.8544921875,1.46484375,-0.18310546875
1742308677,474223789,-0.09130859375,-0.00439453125,0.9755859375,0.79345703125,1.89208984375,-0.3662109375
1742308677,489528282,-0.08544921875,0.001953125,0.9638671875,0.54931640625,1.0986328125,-0.3662109375
1742308677,515408378,-0.091796875,0.00634765625,0.96630859375,0.3662109375,0.244140625,-0.18310546875
1742308677,534290242,-0.0966796875,-0.00244140625,0.97265625,0.1220703125,-0.48828125,0.06103515625
1742308677,554305865,-0.10595703125,-0.0029296875,0.974609375,-0.48828125,-1.89208984375,0.06103515625
1742308677,574274992,-0.0810546875,-0.00390625,0.97216796875,0.06103515625,-1.77001953125,-0.30517578125
1742308677,594269783,-0.0732421875,-0.01025390625,0.984375,0.3662109375,-1.220703125,-0.3662109375
1742308677,614240446,-0.08349609375,-0.005859375,0.97998046875,0.54931640625,-0.1220703125,-0.18310546875
1742308677,634367269,-0.06689453125,-0.00390625,0.96923828125,0.8544921875,1.46484375,-0.18310546875
1742308677,654324908,-0.07470703125,-0.00390625,0.978515625,0.91552734375,1.77001953125,-0.30517578125
1742308677,674219539,-0.08935546875,-0.00537109375,0.97705078125,0.79345703125,2.01416015625,-0.3662109375
1742308677,694047002,-0.0888671875,-0.00048828125,0.96337890625,0.54931640625,0.8544921875,-0.3662109375
1742308677,714942784,-0.09619140625,-0.00439453125,0.974609375,0.67138671875,0.1220703125,-0.18310546875
1742308677,734247976,-0.095703125,-0.0087890625,0.96728515625,0.06103515625,-1.3427734375,-0.06103515625
1742308677,754351631,-0.0908203125,-0.0009765625,0.9677734375,0.42724609375,-1.40380859375,-0.1220703125
1742308677,774293654,-0.08154296875,-0.01416015625,0.97314453125,0.18310546875,-2.01416015625,0.0
1742308677,794083709,-0.08056640625,0.0009765625,0.982421875,0.30517578125,-0.8544921875,-0.30517578125
1742308677,814415363,-0.06982421875,-0.0068359375,0.97265625,0.732421875,-0.18310546875,-0.30517578125
1742308677,834324267,-0.07861328125,-0.00439453125,0.9736328125,0.732421875,0.732421875,0.06103515625
1742308677,855104913,-0.08642578125,-0.01171875,0.9833984375,0.8544921875,1.3427734375,-0.06103515625
1742308677,874342712,-0.09521484375,-0.015625,0.98095703125,0.79345703125,1.03759765625,-0.30517578125
1742308677,894785535,-0.09716796875,-0.00390625,0.9755859375,0.732421875,0.79345703125,-0.6103515625
1742308677,915299365,-0.08349609375,-0.001953125,0.96826171875,0.54931640625,-0.18310546875,-0.244140625
1742308677,934317581,-0.087890625,-0.0009765625,0.974609375,0.1220703125,-1.03759765625,0.0
1742308677,954222708,-0.09521484375,-0.0068359375,0.97314453125,0.0,-0.67138671875,0.0
1742308677,974566459,-0.08447265625,-0.00634765625,0.98388671875,0.1220703125,-0.6103515625,-0.30517578125
1742308677,994203522,-0.07275390625,0.00048828125,0.96826171875,-0.06103515625,-0.3662109375,-0.3662109375
1742308678,15904232,-0.06884765625,-0.00048828125,0.96630859375,0.1220703125,0.48828125,-0.3662109375
1742308678,34427667,-0.09228515625,-0.00341796875,0.97705078125,0.6103515625,0.3662109375,-0.18310546875
1742308678,54357883,-0.0771484375,-0.00732421875,0.96923828125,0.91552734375,0.8544921875,-0.06103515625
1742308678,74331684,-0.08544921875,-0.0029296875,0.9775390625,0.9765625,0.54931640625,-0.42724609375
1742308678,94201484,-0.0966796875,-0.0087890625,0.978515625,1.03759765625,0.30517578125,-0.18310546875
1742308678,114404661,-0.10009765625,0.00146484375,0.9638671875,0.06103515625,-0.6103515625,-0.3662109375
1742308678,134378045,-0.0771484375,0.00146484375,0.96533203125,0.42724609375,-0.3662109375,-0.48828125
1742308678,154564966,-0.0859375,-0.01123046875,0.98291015625,0.6103515625,-1.0986328125,-0.1220703125
1742308678,174418926,-0.09765625,-0.0029296875,0.98193359375,0.30517578125,-0.42724609375,-0.3662109375
1742308678,189497597,-0.0732421875,-0.005859375,0.9619140625,0.30517578125,-0.244140625,-0.48828125
1742308678,214209824,-0.07958984375,0.0048828125,0.9765625,0.3662109375,-0.244140625,-0.244140625
1742308678,234607080,-0.09130859375,-0.00927734375,0.974609375,0.54931640625,0.48828125,0.0
1742308678,255125552,-0.09521484375,-0.00634765625,0.97265625,0.79345703125,-0.06103515625,0.0
1742308678,274314009,-0.08447265625,-0.00537109375,0.982421875,0.54931640625,0.54931640625,-0.30517578125
1742308678,289551143,-0.099609375,-0.0087890625,0.9794921875,0.30517578125,-0.54931640625,-0.54931640625
1742308678,314242186,-0.08349609375,0.0,0.97216796875,0.48828125,0.0,-0.3662109375
1742308678,329316313,-0.07666015625,-0.0078125,0.9697265625,0.6103515625,-0.18310546875,0.0
1742308678,349350529,-0.09130859375,-0.00830078125,0.9912109375,0.67138671875,0.3662109375,-0.30517578125
1742308678,374345732,-0.08642578125,-0.013671875,0.97607421875,0.732421875,0.30517578125,-0.42724609375
1742308678,389576114,-0.0869140625,0.00341796875,0.96826171875,0.42724609375,0.48828125,-0.30517578125
1742308678,414455797,-0.07568359375,0.0009765625,0.9765625,0.1220703125,0.06103515625,-0.30517578125
1742308678,434449661,-0.08642578125,-0.0078125,0.97412109375,0.244140625,0.06103515625,-0.1220703125
1742308678,454524230,-0.09375,0.00048828125,0.97509765625,0.3662109375,-0.06103515625,-0.18310546875
1742308678,474322958,-0.07763671875,-0.01123046875,0.978515625,0.3662109375,0.1220703125,-0.30517578125
1742308678,494254679,-0.09765625,-0.00244140625,0.97607421875,0.18310546875,-0.6103515625,-0.42724609375
1742308678,514163136,-0.0751953125,-0.0009765625,0.96240234375,0.54931640625,0.48828125,-0.6103515625
1742308678,534449608,-0.078125,-0.00732421875,0.97314453125,0.67138671875,-0.54931640625,-0.30517578125
1742308678,554411952,-0.09033203125,-0.0078125,0.98388671875,0.67138671875,0.3662109375,-0.1220703125
1742308678,574532985,-0.0849609375,-0.00927734375,0.9697265625,0.48828125,0.0,-0.18310546875
1742308678,594441921,-0.08984375,0.00146484375,0.9775390625,0.244140625,0.244140625,-0.6103515625
1742308678,614443530,-0.07275390625,-0.00732421875,0.96875,0.06103515625,0.30517578125,-0.1220703125
1742308678,634263219,-0.095703125,0.00146484375,0.97607421875,0.42724609375,-0.06103515625,-0.06103515625
1742308678,649342465,-0.08642578125,-0.0048828125,0.970703125,0.48828125,0.06103515625,-0.1220703125
1742308678,674286564,-0.087890625,-0.00244140625,0.9833984375,0.30517578125,-0.6103515625,-0.1220703125
1742308678,689227474,-0.076171875,-0.00732421875,0.97509765625,0.42724609375,0.06103515625,-0.54931640625
1742308678,709296635,-0.07421875,-0.00439453125,0.97265625,0.18310546875,0.1220703125,-0.42724609375
1742308678,734544765,-0.0927734375,0.00244140625,0.97509765625,0.48828125,0.54931640625,0.06103515625
1742308678,749403436,-0.0810546875,-0.01025390625,0.97607421875,0.67138671875,0.67138671875,0.0
1742308678,774282158,-0.09423828125,-0.00146484375,0.9853515625,0.54931640625,0.0,-0.18310546875
1742308678,789295037,-0.09130859375,-0.00634765625,0.97216796875,0.732421875,0.06103515625,-0.30517578125
1742308678,814237056,-0.08740234375,-0.001953125,0.9755859375,0.3662109375,-0.54931640625,-0.1220703125
1742308678,834677768,-0.08984375,-0.0087890625,0.978515625,0.54931640625,0.1220703125,-0.06103515625
1742308678,849648118,-0.09130859375,-0.0146484375,0.97021484375,0.48828125,-0.54931640625,-0.18310546875
1742308678,874472217,-0.08203125,-0.0078125,0.97216796875,0.6103515625,0.244140625,-0.6103515625
1742308678,894279138,-0.08203125,-0.01220703125,0.9765625,0.3662109375,-0.18310546875,-0.1220703125
1742308678,909677616,-0.09521484375,-0.00537109375,0.97998046875,0.3662109375,0.30517578125,-0.18310546875
1742308678,934374835,-0.080078125,-0.00634765625,0.96630859375,0.732421875,0.54931640625,-0.244140625
1742308678,954402587,-0.0830078125,-0.00830078125,0.98095703125,0.8544921875,0.18310546875,-0.18310546875
1742308678,974734563,-0.08935546875,-0.01416015625,0.984375,0.54931640625,0.18310546875,-0.3662109375
1742308678,994135340,-0.0849609375,-0.0048828125,0.966796875,0.244140625,-0.54931640625,-0.6103515625
1742308679,14682613,-0.0771484375,-0.00048828125,0.97314453125,0.3662109375,-0.30517578125,-0.30517578125
1742308679,34548479,-0.08056640625,-0.0107421875,0.97607421875,0.30517578125,-0.3662109375,-0.1220703125
1742308679,49342863,-0.10205078125,0.00244140625,0.97900390625,0.18310546875,-0.6103515625,0.06103515625
1742308679,74860499,-0.08056640625,-0.00830078125,0.9765625,0.3662109375,0.3662109375,-0.244140625
1742308679,95189021,-0.076171875,-0.005859375,0.98583984375,0.3662109375,0.42724609375,-0.42724609375
1742308679,114298184,-0.08154296875,-0.001953125,0.96630859375,0.6103515625,0.6103515625,-0.244140625
1742308679,134290450,-0.07861328125,0.0029296875,0.96435546875,0.79345703125,0.8544921875,-0.244140625
1742308679,154222908,-0.0888671875,0.0,0.974609375,0.48828125,0.1220703125,-0.30517578125
1742308679,169536715,-0.08203125,-0.00537109375,0.974609375,0.42724609375,-0.06103515625,-0.06103515625
1742308679,189672085,-0.0927734375,-0.00146484375,0.97314453125,0.1220703125,-0.54931640625,-0.42724609375
1742308679,214180794,-0.0869140625,-0.00244140625,0.97265625,0.54931640625,-0.30517578125,0.06103515625
1742308679,234712483,-0.0947265625,-0.0048828125,0.97607421875,0.1220703125,-0.8544921875,-0.06103515625
1742308679,254254414,-0.08203125,-0.0068359375,0.970703125,0.3662109375,-0.3662109375,-0.42724609375
1742308679,274121048,-0.07568359375,-0.00341796875,0.98193359375,0.732421875,0.06103515625,-0.67138671875
1742308679,294290722,-0.07958984375,-0.00537109375,0.9775390625,0.79345703125,0.30517578125,-0.30517578125
1742308679,314141164,-0.07958984375,-0.00634765625,0.96533203125,0.79345703125,0.54931640625,-0.1220703125
1742308679,334297206,-0.1005859375,0.00048828125,0.97900390625,0.48828125,0.30517578125,-0.244140625
1742308679,354249760,-0.0888671875,-0.013671875,0.97314453125,0.732421875,0.42724609375,-0.244140625
1742308679,374217994,-0.095703125,-0.0048828125,0.97412109375,0.54931640625,-0.6103515625,-0.3662109375
1742308679,394400339,-0.087890625,-0.0048828125,0.9755859375,0.42724609375,-0.18310546875,-0.3662109375
1742308679,414182206,-0.0859375,0.0,0.97509765625,0.1220703125,-0.67138671875,-0.18310546875
1742308679,434338088,-0.08203125,0.00244140625,0.97265625,0.0,-0.48828125,0.0
1742308679,454571921,-0.08203125,-0.0078125,0.97802734375,0.30517578125,0.0,0.06103515625
1742308679,474243676,-0.08837890625,-0.0078125,0.98486328125,0.67138671875,0.30517578125,-0.6103515625
1742308679,494307974,-0.07666015625,-0.00732421875,0.97021484375,0.8544921875,0.6103515625,-0.3662109375
1742308679,514293616,-0.0830078125,-0.00048828125,0.96875,0.3662109375,0.79345703125,-0.1220703125
1742308679,534179930,-0.099609375,-0.0048828125,0.97900390625,0.18310546875,0.42724609375,0.1220703125
1742308679,554492035,-0.08544921875,-0.005859375,0.97412109375,0.54931640625,0.18310546875,-0.1220703125
1742308679,574148846,-0.0859375,-0.005859375,0.978515625,0.3662109375,0.0,-0.18310546875
1742308679,594194712,-0.0791015625,-0.005859375,0.98486328125,0.42724609375,-0.30517578125,-0.30517578125
1742308679,614491169,-0.09375,0.00048828125,0.970703125,0.18310546875,-0.54931640625,-0.06103515625
1742308679,634249740,-0.08056640625,-0.0068359375,0.96923828125,0.48828125,-0.06103515625,0.06103515625
1742308679,649519291,-0.0869140625,-0.00830078125,0.98486328125,0.42724609375,-0.1220703125,-0.18310546875
1742308679,674127392,-0.0849609375,-0.00634765625,0.97900390625,0.6103515625,0.18310546875,-0.30517578125
1742308679,694129962,-0.08154296875,-0.00439453125,0.96337890625,0.42724609375,0.244140625,-0.244140625
1742308679,714230100,-0.0849609375,0.001953125,0.9716796875,0.3662109375,0.3662109375,-0.244140625
1742308679,734358398,-0.083984375,-0.00732421875,0.96728515625,0.244140625,0.3662109375,-0.1220703125
1742308679,754301320,-0.09521484375,0.0009765625,0.97509765625,0.06103515625,-0.244140625,-0.1220703125
1742308679,774157042,-0.07470703125,-0.00048828125,0.97607421875,0.1220703125,-0.1220703125,-0.42724609375
1742308679,794132860,-0.09619140625,0.00146484375,0.98388671875,-0.18310546875,-0.91552734375,-0.1220703125
1742308679,814196838,-0.0791015625,-0.0068359375,0.96630859375,0.3662109375,-0.06103515625,-0.244140625
1742308679,834414575,-0.06982421875,-0.00341796875,0.97412109375,0.732421875,0.06103515625,-0.18310546875
1742308679,854360698,-0.08984375,-0.005859375,0.98388671875,0.79345703125,0.67138671875,-0.06103515625
1742308679,874173540,-0.08544921875,-0.0146484375,0.97265625,0.91552734375,0.732421875,-0.244140625
1742308679,894046670,-0.09228515625,0.0,0.978515625,0.8544921875,0.9765625,-0.06103515625
1742308679,909747133,-0.0869140625,-0.00244140625,0.966796875,0.42724609375,0.30517578125,0.0
1742308679,934389761,-0.09326171875,-0.0048828125,0.974609375,0.6103515625,-0.244140625,0.0
1742308679,954220268,-0.09814453125,-0.009765625,0.97705078125,0.42724609375,-0.1220703125,-0.06103515625
1742308679,974244790,-0.0927734375,-0.005859375,0.97705078125,-0.30517578125,-1.8310546875,-0.30517578125
1742308679,994183424,-0.06298828125,-0.00830078125,0.97314453125,0.3662109375,-0.54931640625,-0.8544921875
1742308680,14350314,-0.08154296875,-0.0126953125,0.9833984375,0.6103515625,-0.79345703125,-0.18310546875
1742308680,34752789,-0.091796875,-0.00634765625,0.98291015625,0.91552734375,0.67138671875,0.0
1742308680,54467457,-0.07177734375,-0.009765625,0.9736328125,0.9765625,0.91552734375,0.0
1742308680,74178925,-0.08642578125,-0.00537109375,0.9853515625,1.0986328125,1.220703125,-0.30517578125
1742308680,94237304,-0.09326171875,-0.00634765625,0.97509765625,0.6103515625,1.220703125,-0.244140625
1742308680,114133859,-0.09375,0.0009765625,0.96875,0.30517578125,0.54931640625,-0.18310546875
1742308680,134162799,-0.08935546875,-0.00146484375,0.970703125,0.18310546875,-0.48828125,-0.30517578125
1742308680,154193754,-0.0947265625,-0.00537109375,0.97705078125,-0.1220703125,-1.0986328125,-0.3662109375
1742308680,174103526,-0.08447265625,-0.00244140625,0.97607421875,-0.30517578125,-1.8310546875,-0.244140625
1742308680,194233073,-0.06591796875,-0.00830078125,0.97705078125,-0.1220703125,-1.03759765625,-0.30517578125
1742308680,214094300,-0.0703125,-0.0048828125,0.978515625,0.48828125,-0.18310546875,-0.244140625
1742308680,229392141,-0.09130859375,-0.0029296875,0.9736328125,0.9765625,0.54931640625,0.0
1742308680,254353299,-0.08056640625,0.0,0.96435546875,0.732421875,1.64794921875,-0.3662109375
1742308680,274218718,-0.08740234375,-0.0048828125,0.982421875,0.54931640625,1.52587890625,-0.6103515625
1742308680,294328906,-0.08642578125,-0.00341796875,0.970703125,0.54931640625,0.9765625,-0.30517578125
1742308680,314562357,-0.09326171875,0.00146484375,0.96533203125,0.6103515625,0.18310546875,-0.06103515625
1742308680,334119265,-0.09326171875,-0.00927734375,0.97509765625,0.732421875,-0.42724609375,0.0
1742308680,354237036,-0.1015625,-0.0146484375,0.97802734375,0.54931640625,-1.52587890625,-0.1220703125
1742308680,374120791,-0.0849609375,-0.00146484375,0.97412109375,0.3662109375,-1.52587890625,-0.18310546875
1742308680,389187336,-0.0732421875,-0.009765625,0.970703125,-0.06103515625,-1.3427734375,-0.30517578125
1742308680,414181998,-0.08203125,-0.0009765625,0.98193359375,0.48828125,-0.54931640625,-0.244140625
1742308680,434259385,-0.0791015625,-0.0068359375,0.97119140625,0.732421875,0.30517578125,-0.18310546875
1742308680,454203301,-0.08251953125,-0.00048828125,0.974609375,0.244140625,0.6103515625,-0.1220703125
1742308680,474167920,-0.091796875,-0.00634765625,0.98046875,0.67138671875,1.28173828125,-0.30517578125
1742308680,494272987,-0.09326171875,-0.0068359375,0.97509765625,0.79345703125,0.42724609375,-0.48828125
1742308680,514214407,-0.0908203125,0.00146484375,0.96923828125,0.79345703125,0.54931640625,-0.244140625
1742308680,534292082,-0.09521484375,-0.0048828125,0.97021484375,0.67138671875,-0.54931640625,0.1220703125
1742308680,554423965,-0.10107421875,0.00390625,0.97900390625,0.244140625,-0.48828125,0.06103515625
1742308680,574129257,-0.08154296875,-0.0029296875,0.970703125,0.06103515625,-0.67138671875,-0.244140625
1742308680,594127572,-0.0751953125,0.0009765625,0.9755859375,0.06103515625,-0.48828125,-0.42724609375
1742308680,614222208,-0.0810546875,-0.0078125,0.9716796875,0.54931640625,-0.244140625,-0.3662109375
1742308680,634249099,-0.0986328125,-0.00537109375,0.96826171875,0.06103515625,0.0,0.18310546875
1742308680,654310614,-0.08251953125,-0.00537109375,0.978515625,0.42724609375,0.3662109375,0.06103515625
1742308680,674146434,-0.08203125,-0.00732421875,0.98046875,0.48828125,0.54931640625,-0.30517578125
1742308680,694135885,-0.08154296875,0.00390625,0.97412109375,0.6103515625,0.79345703125,-0.42724609375
1742308680,714457304,-0.078125,0.0,0.96875,0.8544921875,1.03759765625,-0.18310546875
1742308680,734262244,-0.09375,-0.00390625,0.9658203125,0.8544921875,0.244140625,0.06103515625
1742308680,754196079,-0.10595703125,-0.00146484375,0.97509765625,0.54931640625,0.18310546875,0.0
1742308680,774212059,-0.10205078125,-0.01171875,0.97705078125,-0.18310546875,-1.0986328125,-0.1220703125
1742308680,794180550,-0.0830078125,0.001953125,0.9775390625,0.1220703125,-1.03759765625,-0.42724609375
1742308680,809191031,-0.07421875,-0.0068359375,0.9716796875,0.18310546875,-1.220703125,-0.18310546875
1742308680,834268253,-0.08740234375,-0.00439453125,0.970703125,0.1220703125,-0.42724609375,-0.1220703125
1742308680,854602280,-0.076171875,-0.005859375,0.9677734375,0.3662109375,-0.06103515625,-0.244140625
1742308680,874150772,-0.08154296875,0.0,0.97705078125,0.732421875,0.42724609375,-0.18310546875
1742308680,894438335,-0.07763671875,0.00048828125,0.96923828125,0.48828125,1.15966796875,-0.3662109375
1742308680,914584202,-0.080078125,0.00390625,0.9677734375,0.42724609375,0.8544921875,-0.1220703125
1742308680,934370805,-0.08740234375,-0.0048828125,0.97509765625,0.48828125,1.220703125,0.06103515625
1742308680,954193793,-0.09033203125,-0.01025390625,0.9765625,0.48828125,0.30517578125,-0.18310546875
1742308680,974110029,-0.09814453125,0.0009765625,0.97900390625,0.30517578125,0.06103515625,-0.30517578125
1742308680,993979096,-0.07568359375,-0.00732421875,0.96826171875,0.67138671875,-0.8544921875,-0.06103515625
1742308681,14342052,-0.0859375,0.00390625,0.97900390625,0.0,-1.3427734375,0.30517578125
1742308681,34357104,-0.09375,-0.00830078125,0.9755859375,0.1220703125,-0.8544921875,0.1220703125
1742308681,54227101,-0.0849609375,-0.01123046875,0.9794921875,0.244140625,-0.67138671875,-0.06103515625
1742308681,74257482,-0.07763671875,-0.01123046875,0.9833984375,0.42724609375,0.67138671875,-0.54931640625
1742308681,94187351,-0.0751953125,-0.01220703125,0.97119140625,0.732421875,0.8544921875,-0.244140625
1742308681,114203715,-0.0830078125,0.00048828125,0.97021484375,0.67138671875,1.220703125,-0.1220703125
1742308681,134333104,-0.08935546875,-0.0078125,0.966796875,0.42724609375,0.9765625,0.244140625
1742308681,154237116,-0.10400390625,-0.00390625,0.982421875,0.91552734375,0.54931640625,-0.244140625
1742308681,174126473,-0.08642578125,0.0048828125,0.96826171875,0.6103515625,0.0,-0.54931640625
1742308681,194134550,-0.07958984375,-0.00048828125,0.97216796875,0.1220703125,-0.91552734375,-0.18310546875
1742308681,214186019,-0.0869140625,-0.00244140625,0.9736328125,0.06103515625,-1.03759765625,0.0
1742308681,234141519,-0.0908203125,-0.01171875,0.9638671875,0.06103515625,-1.0986328125,0.0
1742308681,254286108,-0.08642578125,-0.0087890625,0.98095703125,0.18310546875,-0.6103515625,-0.30517578125
1742308681,274104841,-0.0693359375,-0.01513671875,0.97900390625,0.42724609375,-0.18310546875,-0.42724609375
1742308681,294133493,-0.07861328125,0.0048828125,0.9814453125,0.6103515625,0.30517578125,-0.06103515625
1742308681,314126626,-0.07470703125,-0.0126953125,0.97119140625,0.9765625,1.52587890625,0.30517578125
1742308681,334230862,-0.0810546875,-0.00537109375,0.9794921875,0.8544921875,1.708984375,-0.06103515625
1742308681,354500411,-0.08544921875,-0.00244140625,0.97412109375,0.8544921875,1.40380859375,-0.3662109375
1742308681,374159016,-0.0810546875,0.0009765625,0.9716796875,0.6103515625,0.6103515625,-0.48828125
1742308681,394248628,-0.0888671875,0.00439453125,0.97314453125,-0.06103515625,-0.732421875,-0.1220703125
1742308681,414162305,-0.083984375,-0.00634765625,0.970703125,-0.1220703125,-1.15966796875,0.0
1742308681,434303982,-0.09423828125,-0.0029296875,0.978515625,-0.06103515625,-1.52587890625,0.0
1742308681,454239706,-0.0849609375,-0.01171875,0.97705078125,0.54931640625,-0.8544921875,0.0
1742308681,474291847,-0.08154296875,-0.0068359375,0.98095703125,0.42724609375,-0.79345703125,-0.30517578125
1742308681,494426676,-0.06640625,-0.00439453125,0.97314453125,0.48828125,0.244140625,-0.6103515625
1742308681,514163553,-0.0751953125,0.00341796875,0.97509765625,0.9765625,1.03759765625,-0.6103515625
1742308681,534277165,-0.0869140625,-0.00537109375,0.97705078125,1.03759765625,1.46484375,0.0
1742308681,554373178,-0.09326171875,-0.0078125,0.96630859375,0.67138671875,1.0986328125,-0.244140625
1742308681,574195302,-0.1015625,0.00244140625,0.9814453125,0.30517578125,0.42724609375,-0.48828125
1742308681,594252371,-0.087890625,-0.00341796875,0.9697265625,0.54931640625,-0.244140625,-0.54931640625
1742308681,614187328,-0.09130859375,-0.00048828125,0.97314453125,0.6103515625,-1.3427734375,-0.30517578125
1742308681,634215404,-0.08740234375,-0.00830078125,0.97216796875,0.3662109375,-1.28173828125,-0.1220703125
1742308681,654308601,-0.087890625,-0.0078125,0.974609375,0.244140625,-1.220703125,-0.06103515625
1742308681,674371142,-0.076171875,0.00146484375,0.978515625,-0.06103515625,-0.3662109375,-0.30517578125
1742308681,695190417,-0.07421875,-0.00634765625,0.978515625,0.18310546875,0.6103515625,-0.244140625
1742308681,714506463,-0.083984375,-0.001953125,0.97900390625,0.6103515625,1.0986328125,-0.48828125
1742308681,731455758,-0.09130859375,-0.00634765625,0.970703125,1.0986328125,1.3427734375,0.0
1742308681,754404696,-0.095703125,-0.00439453125,0.9697265625,0.67138671875,0.9765625,-0.1220703125
1742308681,769463178,-0.09814453125,-0.00390625,0.9775390625,0.42724609375,0.3662109375,-0.3662109375
1742308681,794436818,-0.08056640625,-0.0009765625,0.97314453125,0.244140625,-0.3662109375,-0.3662109375
1742308681,814142494,-0.07958984375,0.00244140625,0.9736328125,0.18310546875,-0.6103515625,-0.244140625
1742308681,834232811,-0.07861328125,0.00048828125,0.9716796875,0.30517578125,-0.54931640625,-0.18310546875
1742308681,854474711,-0.10107421875,-0.0029296875,0.97265625,0.18310546875,-0.732421875,-0.18310546875
1742308681,874215780,-0.07421875,-0.00439453125,0.974609375,0.42724609375,0.3662109375,-0.48828125
1742308681,894227025,-0.07373046875,-0.00927734375,0.9755859375,-0.18310546875,-0.3662109375,-0.3662109375
1742308681,914138366,-0.09228515625,-0.0048828125,0.9794921875,0.54931640625,0.6103515625,-0.1220703125
1742308681,934228106,-0.0849609375,-0.01416015625,0.97021484375,0.79345703125,0.244140625,-0.1220703125
1742308681,954525591,-0.08837890625,-0.00537109375,0.98681640625,0.48828125,0.06103515625,-0.30517578125
1742308681,974165764,-0.08251953125,-0.0087890625,0.96923828125,0.1220703125,0.18310546875,-0.42724609375
1742308681,994167248,-0.0771484375,0.0087890625,0.970703125,0.06103515625,-0.48828125,-0.42724609375
1742308682,14243774,-0.0703125,0.0,0.966796875,0.30517578125,-0.06103515625,-0.30517578125
1742308682,34598699,-0.09619140625,-0.00390625,0.97314453125,0.1220703125,-0.54931640625,0.06103515625
1742308682,49602430,-0.09130859375,-0.0087890625,0.97607421875,0.3662109375,0.244140625,-0.18310546875
1742308682,74136839,-0.06982421875,-0.00830078125,0.9716796875,0.18310546875,0.06103515625,-0.3662109375
1742308682,94149557,-0.07666015625,0.00634765625,0.9765625,0.42724609375,0.54931640625,-0.30517578125
1742308682,114235651,-0.0732421875,-0.009765625,0.96923828125,1.03759765625,0.3662109375,-0.06103515625
1742308682,134197361,-0.10009765625,-0.001953125,0.9833984375,0.79345703125,0.1220703125,0.1220703125
1742308682,154210527,-0.0908203125,-0.009765625,0.974609375,0.42724609375,0.18310546875,0.06103515625
1742308682,174097677,-0.09228515625,-0.0068359375,0.97509765625,0.244140625,-0.30517578125,-0.06103515625
1742308682,194194907,-0.0908203125,-0.0048828125,0.9833984375,0.18310546875,0.0,-0.3662109375
1742308682,214364232,-0.0830078125,-0.00048828125,0.96923828125,0.0,-0.91552734375,-0.42724609375
1742308682,229439259,-0.0673828125,-0.00390625,0.966796875,0.30517578125,0.0,-0.42724609375
1742308682,249319593,-0.0830078125,-0.01611328125,0.98193359375,0.732421875,-0.06103515625,-0.3662109375
1742308682,274287922,-0.08935546875,-0.00244140625,0.98193359375,1.03759765625,0.42724609375,-0.1220703125
1742308682,294364832,-0.07666015625,0.00048828125,0.96875,0.8544921875,0.732421875,-0.244140625
1742308682,314397550,-0.08251953125,-0.001953125,0.978515625,0.91552734375,0.54931640625,-0.1220703125
1742308682,334321756,-0.10009765625,-0.00732421875,0.97509765625,0.54931640625,0.30517578125,0.0
1742308682,354196618,-0.087890625,0.00146484375,0.97314453125,0.1220703125,0.06103515625,-0.18310546875
1742308682,374157431,-0.08154296875,-0.00390625,0.9775390625,-0.06103515625,-0.8544921875,-0.6103515625
1742308682,394462885,-0.08447265625,-0.00146484375,0.9794921875,0.06103515625,-0.91552734375,-0.48828125
1742308682,409660599,-0.0908203125,0.0029296875,0.96826171875,0.1220703125,-1.46484375,-0.06103515625
1742308682,429351397,-0.076171875,-0.00927734375,0.97314453125,0.3662109375,-0.244140625,-0.244140625
1742308682,454425231,-0.064453125,-0.005859375,0.98828125,0.6103515625,0.42724609375,-0.6103515625
1742308682,474172477,-0.08203125,0.00390625,0.970703125,0.732421875,0.79345703125,-0.732421875
1742308682,494070795,-0.06884765625,0.00537109375,0.96484375,0.732421875,1.708984375,-0.48828125
1742308682,514287320,-0.08935546875,0.001953125,0.97216796875,0.42724609375,1.03759765625,-0.244140625
1742308682,534596838,-0.09912109375,-0.00390625,0.974609375,0.6103515625,0.42724609375,0.0
1742308682,554459156,-0.09912109375,-0.00390625,0.97119140625,0.30517578125,-0.48828125,-0.18310546875
1742308682,574090754,-0.0888671875,-0.00732421875,0.9833984375,0.3662109375,-0.79345703125,-0.06103515625
1742308682,589632404,-0.09912109375,-0.0048828125,0.97900390625,-0.244140625,-2.01416015625,-0.3662109375
1742308682,614454814,-0.06494140625,0.00048828125,0.9677734375,0.42724609375,-1.15966796875,-0.54931640625
1742308682,634120588,-0.06640625,-0.01123046875,0.98291015625,0.8544921875,-0.8544921875,-0.18310546875
1742308682,654249562,-0.0859375,-0.00732421875,0.98583984375,0.9765625,0.30517578125,-0.06103515625
1742308682,674034952,-0.08203125,-0.005859375,0.966796875,0.67138671875,1.15966796875,-0.42724609375
1742308682,694173269,-0.0810546875,0.00732421875,0.97412109375,0.42724609375,1.15966796875,-0.67138671875
1742308682,714123555,-0.0859375,-0.00732421875,0.974609375,0.48828125,0.9765625,-0.244140625
1742308682,734438129,-0.107421875,-0.00634765625,0.974609375,0.67138671875,0.0,-0.1220703125
1742308682,754274975,-0.0966796875,-0.00390625,0.974609375,0.42724609375,-0.30517578125,-0.18310546875
1742308682,774137869,-0.09228515625,-0.00537109375,0.97802734375,0.244140625,-1.52587890625,-0.42724609375
1742308682,794514554,-0.0791015625,-0.00341796875,0.97412109375,0.42724609375,-1.0986328125,-0.67138671875
1742308682,814651976,-0.06787109375,-0.00244140625,0.966796875,0.1220703125,-0.67138671875,-0.244140625
1742308682,834516662,-0.08935546875,-0.0029296875,0.98193359375,0.54931640625,0.48828125,-0.1220703125
1742308682,857525089,-0.0791015625,-0.0146484375,0.974609375,0.67138671875,0.91552734375,0.06103515625
1742308682,877318543,-0.0986328125,-0.00390625,0.97705078125,0.6103515625,1.28173828125,-0.3662109375
1742308682,906430165,-0.08544921875,-0.001953125,0.97119140625,0.48828125,0.9765625,-0.42724609375
1742308682,915436429,-0.08251953125,-0.00390625,0.9775390625,0.79345703125,0.30517578125,-0.3662109375
1742308682,940700790,-0.09521484375,-0.001953125,0.97021484375,0.6103515625,0.06103515625,-0.30517578125
1742308682,955231305,-0.08447265625,-0.00390625,0.97412109375,0.3662109375,-0.244140625,-0.244140625
1742308682,969903163,-0.09326171875,0.00048828125,0.9755859375,0.06103515625,-1.03759765625,-0.18310546875
1742308682,994585317,-0.07275390625,0.0,0.9716796875,-0.1220703125,-0.54931640625,-0.42724609375
1742308683,9301688,-0.087890625,-0.0068359375,0.9775390625,0.18310546875,-0.91552734375,-0.1220703125
1742308683,34428387,-0.0830078125,-0.00927734375,0.97412109375,0.6103515625,0.06103515625,0.06103515625
1742308683,54754193,-0.08056640625,-0.01025390625,0.96875,0.48828125,0.30517578125,-0.1220703125
1742308683,74233921,-0.09228515625,-0.0029296875,0.98193359375,0.3662109375,0.48828125,-0.42724609375
1742308683,94695856,-0.07275390625,-0.00146484375,0.96435546875,0.48828125,0.91552734375,-0.54931640625
1742308683,152241119,-0.10888671875,-0.00146484375,0.97607421875,0.1220703125,-0.79345703125,-0.06103515625
1742308683,157732570,-0.09423828125,0.0048828125,0.97314453125,0.18310546875,-0.48828125,0.30517578125
1742308683,174432108,-0.083984375,-0.0078125,0.97900390625,0.1220703125,0.0,-0.6103515625
1742308683,194425563,-0.06640625,-0.00439453125,0.9736328125,0.18310546875,-0.42724609375,-0.42724609375
1742308683,214263498,-0.08544921875,0.00048828125,0.97802734375,0.6103515625,0.1220703125,-0.1220703125
1742308683,234360697,-0.08642578125,-0.01318359375,0.9658203125,0.91552734375,0.06103515625,0.1220703125
1742308683,254947719,-0.0888671875,-0.0029296875,0.98486328125,0.67138671875,0.06103515625,-0.1220703125
1742308683,274213847,-0.0927734375,-0.0107421875,0.9765625,0.3662109375,0.48828125,-0.30517578125
1742308683,296866404,-0.091796875,-0.00048828125,0.97314453125,0.3662109375,-0.1220703125,-0.30517578125
1742308683,321056783,-0.07666015625,-0.0068359375,0.97412109375,0.79345703125,0.42724609375,-0.244140625
1742308683,333925476,-0.08935546875,-0.009765625,0.97021484375,0.42724609375,-0.42724609375,0.0
1742308683,357527120,-0.0888671875,-0.0078125,0.970703125,0.67138671875,-0.1220703125,-0.244140625
1742308683,377241375,-0.08251953125,-0.01123046875,0.978515625,0.48828125,-0.79345703125,-0.06103515625
1742308683,395385040,-0.08349609375,0.0,0.98388671875,0.732421875,-0.1220703125,-0.1220703125
1742308683,414626400,-0.0771484375,-0.0029296875,0.96826171875,0.8544921875,0.18310546875,-0.30517578125
1742308683,434376527,-0.08837890625,-0.00244140625,0.970703125,0.6103515625,0.0,0.0
1742308683,458907002,-0.0869140625,-0.0078125,0.9775390625,0.244140625,0.3662109375,-0.1220703125
1742308683,476108491,-0.0830078125,-0.00537109375,0.97265625,0.3662109375,0.1220703125,-0.54931640625
1742308683,495307227,-0.09033203125,-0.00244140625,0.97119140625,0.244140625,-0.1220703125,-0.42724609375
1742308683,515593418,-0.0791015625,-0.0078125,0.96630859375,0.30517578125,-0.54931640625,-0.244140625
1742308683,535404857,-0.08642578125,0.0,0.98193359375,0.3662109375,-0.91552734375,0.1220703125
1742308683,549788141,-0.0869140625,-0.01708984375,0.9755859375,0.54931640625,0.0,0.06103515625
1742308683,570279547,-0.07861328125,0.00048828125,0.98046875,0.30517578125,0.18310546875,-0.54931640625
1742308683,590507370,-0.064453125,0.001953125,0.97509765625,0.732421875,0.91552734375,-0.48828125
1742308683,609644506,-0.06689453125,0.00341796875,0.9736328125,0.48828125,0.91552734375,-0.18310546875
1742308683,634624837,-0.09521484375,-0.00048828125,0.98095703125,0.3662109375,0.67138671875,-0.1220703125
1742308683,654547284,-0.091796875,-0.0068359375,0.97314453125,0.30517578125,0.30517578125,-0.244140625
1742308683,674097219,-0.09228515625,-0.00146484375,0.97412109375,0.18310546875,-0.6103515625,-0.3662109375
1742308683,694517842,-0.09228515625,-0.00732421875,0.97900390625,0.3662109375,-0.48828125,-0.18310546875
1742308683,715255008,-0.09814453125,0.0,0.97607421875,0.1220703125,-1.77001953125,-0.244140625
1742308683,736170830,-0.07568359375,-0.0029296875,0.9716796875,0.3662109375,-0.91552734375,-0.30517578125
1742308683,754682911,-0.08154296875,-0.01416015625,0.98046875,0.732421875,-0.6103515625,-0.30517578125
1742308683,774377006,-0.08935546875,-0.00732421875,0.97802734375,0.67138671875,0.67138671875,-0.42724609375
1742308683,795203932,-0.07177734375,-0.00341796875,0.9619140625,0.48828125,1.03759765625,-0.3662109375
1742308683,814688684,-0.08349609375,0.0048828125,0.9765625,0.48828125,0.9765625,-0.30517578125
1742308683,831461597,-0.08935546875,-0.009765625,0.96875,0.79345703125,0.79345703125,-0.3662109375
1742308683,854713194,-0.099609375,-0.0029296875,0.97265625,0.79345703125,-0.1220703125,-0.30517578125
1742308683,874409977,-0.08251953125,-0.00439453125,0.97265625,0.42724609375,-0.30517578125,-0.48828125
1742308683,894458696,-0.091796875,-0.00390625,0.970703125,0.06103515625,-1.28173828125,-0.244140625
1742308683,914338807,-0.08203125,0.00146484375,0.96484375,0.244140625,-1.0986328125,-0.244140625
1742308683,934603334,-0.0712890625,-0.0068359375,0.97314453125,0.18310546875,-0.48828125,0.1220703125
1742308683,954518133,-0.0849609375,-0.00830078125,0.98974609375,0.54931640625,0.1220703125,-0.30517578125
1742308683,974408740,-0.08837890625,-0.01611328125,0.97412109375,0.9765625,0.67138671875,-0.30517578125
1742308683,989300311,-0.08544921875,-0.00341796875,0.97265625,0.67138671875,1.15966796875,-0.18310546875
1742308684,15649218,-0.0859375,-0.00244140625,0.9677734375,0.6103515625,1.15966796875,0.06103515625
1742308684,34599411,-0.09228515625,-0.0068359375,0.9736328125,0.48828125,0.6103515625,0.0
1742308684,56049185,-0.09033203125,-0.0029296875,0.9736328125,0.48828125,0.244140625,-0.244140625
1742308684,72742516,-0.087890625,-0.00927734375,0.9775390625,0.48828125,-0.6103515625,-0.244140625
1742308684,89734183,-0.08642578125,0.00341796875,0.97265625,0.42724609375,-0.6103515625,-0.1220703125
1742308684,116196274,-0.0888671875,-0.0029296875,0.97021484375,0.1220703125,-0.48828125,0.1220703125
1742308684,134610403,-0.08740234375,-0.001953125,0.9814453125,-0.06103515625,-0.6103515625,-0.1220703125
1742308684,149641079,-0.07666015625,-0.0078125,0.97998046875,0.30517578125,-0.244140625,-0.18310546875
1742308684,175814562,-0.08251953125,-0.00537109375,0.97412109375,0.18310546875,0.1220703125,-0.244140625
1742308684,189737335,-0.08154296875,-0.00048828125,0.97509765625,0.18310546875,0.3662109375,-0.3662109375
1742308684,214609891,-0.078125,-0.00146484375,0.96826171875,0.48828125,0.42724609375,-0.18310546875
1742308684,234291443,-0.10009765625,-0.0009765625,0.9697265625,0.67138671875,0.48828125,-0.1220703125
1742308684,254313699,-0.08203125,-0.00634765625,0.9697265625,0.79345703125,0.67138671875,-0.244140625
1742308684,275627539,-0.0869140625,-0.00244140625,0.97021484375,0.3662109375,0.0,-0.30517578125
1742308684,294300420,-0.0810546875,0.00341796875,0.9697265625,0.06103515625,-0.06103515625,-0.30517578125
1742308684,314249940,-0.08740234375,-0.00390625,0.9736328125,0.18310546875,0.0,0.06103515625
1742308684,334705251,-0.09814453125,-0.00439453125,0.9765625,0.30517578125,-0.244140625,0.06103515625
1742308684,354361172,-0.07080078125,-0.0078125,0.9736328125,0.54931640625,-0.244140625,-0.42724609375
1742308684,377119042,-0.07958984375,-0.00439453125,0.9775390625,0.30517578125,-0.42724609375,-0.6103515625
1742308684,389608856,-0.07958984375,-0.00537109375,0.9716796875,0.48828125,0.1220703125,-0.244140625
1742308684,414815908,-0.0849609375,-0.0068359375,0.97412109375,0.8544921875,0.1220703125,0.1220703125
1742308684,434329172,-0.09375,-0.0126953125,0.97998046875,0.91552734375,0.79345703125,0.06103515625
1742308684,454343396,-0.0947265625,-0.01025390625,0.9775390625,0.6103515625,0.6103515625,-0.1220703125
1742308684,474589876,-0.08154296875,0.0009765625,0.97216796875,0.42724609375,0.54931640625,-0.244140625
1742308684,495389411,-0.080078125,-0.00244140625,0.97412109375,0.30517578125,0.244140625,-0.1220703125
1742308684,514338868,-0.099609375,-0.00048828125,0.9794921875,0.6103515625,-0.244140625,0.06103515625
1742308684,535581731,-0.09130859375,-0.00830078125,0.97265625,0.732421875,-0.42724609375,-0.30517578125
1742308684,554359764,-0.08642578125,-0.0048828125,0.97998046875,0.42724609375,-0.9765625,-0.244140625
1742308684,571169287,-0.0908203125,-0.0068359375,0.9775390625,0.30517578125,-0.79345703125,-0.244140625
1742308684,594386389,-0.07763671875,-0.0048828125,0.96337890625,0.1220703125,-0.42724609375,-0.48828125
1742308684,614454853,-0.07861328125,0.001953125,0.97119140625,0.30517578125,0.30517578125,-0.244140625
1742308684,634667796,-0.08056640625,-0.0126953125,0.97216796875,0.732421875,0.48828125,-0.18310546875
1742308684,650032456,-0.0859375,-0.00390625,0.9736328125,0.67138671875,0.42724609375,-0.18310546875
1742308684,669585497,-0.07861328125,-0.00732421875,0.97412109375,0.48828125,0.8544921875,-0.18310546875
1742308684,694517765,-0.0732421875,-0.001953125,0.98046875,0.67138671875,1.03759765625,-0.48828125
1742308684,715848884,-0.1005859375,-0.01123046875,0.96826171875,0.8544921875,0.244140625,-0.18310546875
1742308684,734441509,-0.08935546875,0.0,0.96533203125,0.54931640625,0.3662109375,-0.42724609375
1742308684,754232341,-0.09033203125,-0.00146484375,0.98046875,0.18310546875,-0.6103515625,-0.3662109375
1742308684,779152353,-0.08544921875,-0.00244140625,0.9716796875,0.06103515625,-0.732421875,-0.3662109375
1742308684,794393045,-0.0849609375,-0.00341796875,0.96435546875,-0.06103515625,-0.91552734375,-0.30517578125
1742308684,814553157,-0.0830078125,-0.00634765625,0.974609375,0.3662109375,-0.42724609375,0.1220703125
1742308684,834277941,-0.0966796875,-0.0068359375,0.97314453125,0.30517578125,-0.79345703125,0.244140625
1742308684,854345477,-0.08251953125,-0.00732421875,0.97119140625,0.54931640625,0.1220703125,-0.42724609375
1742308684,874775317,-0.06640625,-0.00537109375,0.9873046875,1.3427734375,0.54931640625,-0.48828125
1742308684,894191206,-0.07861328125,-0.00390625,0.9775390625,1.28173828125,0.91552734375,0.06103515625
1742308684,914337910,-0.09619140625,-0.00048828125,0.96240234375,0.54931640625,1.220703125,-0.1220703125
1742308684,935055621,-0.0947265625,0.005859375,0.97509765625,0.48828125,0.67138671875,-0.30517578125
1742308684,955841365,-0.08447265625,-0.00439453125,0.9765625,0.18310546875,-0.3662109375,-0.6103515625
1742308684,974487366,-0.09375,-0.00341796875,0.978515625,0.06103515625,-0.91552734375,-0.48828125
1742308684,994731734,-0.087890625,-0.00927734375,0.97509765625,0.1220703125,-1.28173828125,-0.42724609375
1742308685,10465641,-0.0849609375,-0.005859375,0.97314453125,0.06103515625,-1.40380859375,-0.244140625
1742308685,34280280,-0.0751953125,-0.00390625,0.97021484375,0.30517578125,-0.9765625,-0.1220703125
1742308685,54829128,-0.0712890625,-0.00634765625,0.9765625,0.3662109375,0.06103515625,-0.3662109375
1742308685,74567002,-0.07666015625,-0.00634765625,0.98486328125,0.79345703125,1.3427734375,-0.42724609375
1742308685,94914826,-0.076171875,-0.001953125,0.96875,1.03759765625,1.5869140625,-0.30517578125
1742308685,114534236,-0.0927734375,-0.00341796875,0.96826171875,0.79345703125,1.40380859375,0.18310546875
1742308685,134708621,-0.10888671875,-0.0078125,0.9814453125,0.54931640625,1.220703125,-0.06103515625
1742308685,154168894,-0.09423828125,-0.005859375,0.96875,0.42724609375,-0.244140625,-0.42724609375
1742308685,174501327,-0.08837890625,-0.0009765625,0.97705078125,0.0,-0.91552734375,-0.3662109375
1742308685,194564800,-0.080078125,-0.00390625,0.97802734375,0.18310546875,-1.03759765625,-0.48828125
1742308685,214409265,-0.0947265625,-0.001953125,0.9697265625,0.1220703125,-1.77001953125,0.0
1742308685,229678054,-0.06982421875,-0.00537109375,0.970703125,0.244140625,-0.54931640625,-0.3662109375
1742308685,254505907,-0.0693359375,-0.01416015625,0.98583984375,0.06103515625,-0.732421875,-0.3662109375
1742308685,275902563,-0.080078125,-0.00732421875,0.97705078125,1.03759765625,0.8544921875,-0.54931640625
1742308685,296616436,-0.078125,-0.00634765625,0.97314453125,0.9765625,0.91552734375,-0.3662109375
1742308685,317760676,-0.08837890625,0.00048828125,0.97705078125,0.67138671875,1.03759765625,-0.1220703125
1742308685,335157591,-0.0859375,-0.01171875,0.97119140625,0.732421875,1.03759765625,-0.30517578125
1742308685,354231081,-0.0908203125,0.00146484375,0.974609375,0.54931640625,-0.18310546875,-0.30517578125
1742308685,374825849,-0.07373046875,-0.00048828125,0.9716796875,0.244140625,-0.30517578125,-0.30517578125
1742308685,395464938,-0.08984375,0.005859375,0.9736328125,-0.18310546875,-1.3427734375,-0.06103515625
1742308685,414272764,-0.08984375,-0.00537109375,0.9755859375,0.18310546875,-0.54931640625,-0.18310546875
1742308685,434291181,-0.07763671875,-0.01123046875,0.97802734375,-0.06103515625,-0.42724609375,-0.30517578125
1742308685,455769949,-0.072265625,-0.00439453125,0.97900390625,0.06103515625,0.30517578125,-0.3662109375
1742308685,474343759,-0.0703125,-0.00634765625,0.97412109375,0.732421875,0.67138671875,-0.3662109375
1742308685,495286879,-0.087890625,0.005859375,0.97998046875,0.732421875,0.3662109375,0.06103515625
1742308685,514341457,-0.0966796875,-0.0068359375,0.97021484375,0.732421875,0.9765625,0.0
1742308685,534174690,-0.09716796875,-0.005859375,0.97607421875,0.6103515625,0.1220703125,0.0
1742308685,554114867,-0.09521484375,-0.00927734375,0.98095703125,0.48828125,0.42724609375,-0.42724609375
1742308685,574524900,-0.09033203125,-0.00537109375,0.96875,-0.18310546875,-0.9765625,-0.42724609375
1742308685,594200309,-0.06982421875,0.00146484375,0.9755859375,0.48828125,-0.30517578125,-0.244140625
1742308685,614174407,-0.08447265625,-0.01953125,0.97900390625,0.244140625,-0.67138671875,0.18310546875
1742308685,634471607,-0.08935546875,-0.00634765625,0.984375,0.48828125,0.0,0.0
1742308685,654193929,-0.06201171875,-0.00927734375,0.97607421875,0.54931640625,0.244140625,-0.42724609375
1742308685,674155066,-0.0791015625,0.0009765625,0.98388671875,1.03759765625,0.3662109375,-0.30517578125
1742308685,694518699,-0.09130859375,-0.00244140625,0.97412109375,0.732421875,0.91552734375,-0.30517578125
1742308685,714260412,-0.08935546875,0.00146484375,0.96240234375,0.3662109375,0.48828125,-0.244140625
1742308685,734340237,-0.0869140625,-0.001953125,0.970703125,0.18310546875,0.0,-0.244140625
1742308685,754152158,-0.09423828125,-0.009765625,0.97509765625,-0.06103515625,-0.6103515625,-0.3662109375
1742308685,774137839,-0.07958984375,0.0009765625,0.96923828125,0.1220703125,-1.3427734375,-0.3662109375
1742308685,794185120,-0.0732421875,-0.0087890625,0.96875,0.18310546875,-0.67138671875,-0.1220703125
1742308685,814243921,-0.08056640625,-0.005859375,0.98486328125,0.6103515625,-0.06103515625,-0.30517578125
1742308685,834306402,-0.07666015625,-0.009765625,0.9765625,0.79345703125,0.3662109375,-0.3662109375
1742308685,854151987,-0.07275390625,0.0009765625,0.96533203125,0.54931640625,1.0986328125,-0.42724609375
1742308685,874504292,-0.080078125,0.001953125,0.97998046875,0.3662109375,0.91552734375,-0.54931640625
1742308685,894124821,-0.0888671875,-0.00244140625,0.97216796875,0.3662109375,0.91552734375,-0.30517578125
1742308685,914271686,-0.1005859375,-0.00244140625,0.9658203125,0.48828125,0.244140625,0.06103515625
1742308685,934521783,-0.095703125,-0.00634765625,0.98291015625,0.67138671875,-0.18310546875,0.3662109375
1742308685,954333417,-0.1025390625,-0.00830078125,0.9794921875,0.1220703125,-1.28173828125,-0.3662109375
1742308685,975235129,-0.072265625,0.001953125,0.9697265625,0.3662109375,-1.03759765625,-0.67138671875
1742308685,994695210,-0.07568359375,-0.00390625,0.9697265625,0.6103515625,-1.28173828125,-0.18310546875
1742308686,14279900,-0.0927734375,-0.00634765625,0.982421875,0.732421875,-0.30517578125,0.06103515625
1742308686,34274030,-0.083984375,-0.0048828125,0.96533203125,0.42724609375,0.30517578125,-0.1220703125
1742308686,54227808,-0.07763671875,0.0009765625,0.9775390625,0.3662109375,0.6103515625,-0.54931640625
1742308686,74482802,-0.07568359375,-0.0048828125,0.98193359375,0.48828125,0.732421875,-0.3662109375
1742308686,94316036,-0.09423828125,-0.00732421875,0.97607421875,0.91552734375,0.42724609375,-0.18310546875
1742308686,114339382,-0.09423828125,-0.00439453125,0.96923828125,1.03759765625,0.42724609375,0.0
1742308686,134201480,-0.091796875,-0.0087890625,0.9716796875,0.732421875,-0.48828125,-0.06103515625
1742308686,154525850,-0.0908203125,0.00146484375,0.974609375,0.42724609375,-0.6103515625,-0.30517578125
1742308686,174312268,-0.08056640625,-0.0009765625,0.97119140625,0.06103515625,-0.48828125,-0.3662109375
1742308686,194270494,-0.08349609375,-0.0009765625,0.974609375,0.18310546875,-0.244140625,-0.18310546875
1742308686,209285204,-0.08349609375,-0.01416015625,0.97802734375,0.91552734375,0.30517578125,-0.06103515625
1742308686,234375650,-0.087890625,-0.01123046875,0.9794921875,0.732421875,0.3662109375,0.06103515625
1742308686,254210580,-0.09423828125,-0.0068359375,0.9775390625,0.54931640625,0.42724609375,-0.244140625
1742308686,274672838,-0.07177734375,-0.0107421875,0.9775390625,0.6103515625,0.1220703125,-0.3662109375
1742308686,294336856,-0.0830078125,0.00048828125,0.9794921875,0.6103515625,0.3662109375,-0.244140625
1742308686,314345514,-0.0849609375,-0.0009765625,0.96728515625,0.79345703125,0.42724609375,0.0
1742308686,334378364,-0.09912109375,0.0,0.97314453125,0.48828125,0.06103515625,0.1220703125
1742308686,354505710,-0.0771484375,-0.00146484375,0.97705078125,-0.30517578125,0.30517578125,-0.6103515625
1742308686,374221248,-0.09033203125,-0.0009765625,0.9697265625,-0.30517578125,-0.54931640625,-0.54931640625
1742308686,394478322,-0.08349609375,0.00048828125,0.9677734375,0.1220703125,-0.42724609375,-0.1220703125
1742308686,414470020,-0.08154296875,-0.01025390625,0.9697265625,0.42724609375,-0.42724609375,0.1220703125
1742308686,434304566,-0.09228515625,-0.005859375,0.982421875,0.6103515625,-0.3662109375,-0.1220703125
1742308686,456829734,-0.0703125,-0.00390625,0.96533203125,0.3662109375,-0.244140625,-0.3662109375
1742308686,474450298,-0.08544921875,0.001953125,0.98193359375,0.48828125,0.244140625,-0.3662109375
1742308686,494282444,-0.076171875,-0.00390625,0.9736328125,0.67138671875,0.79345703125,-0.244140625
1742308686,514363710,-0.099609375,-0.0029296875,0.96533203125,0.67138671875,0.48828125,0.0
1742308686,534385488,-0.08154296875,-0.00244140625,0.96875,0.3662109375,0.48828125,-0.244140625
1742308686,554238882,-0.078125,-0.00341796875,0.9814453125,0.18310546875,0.18310546875,-0.244140625
1742308686,569549112,-0.09619140625,0.00048828125,0.97705078125,0.18310546875,0.0,-0.3662109375
1742308686,589433738,-0.07666015625,-0.00048828125,0.96337890625,0.48828125,-0.1220703125,-0.244140625
1742308686,614316728,-0.08349609375,-0.0009765625,0.97705078125,0.79345703125,-0.54931640625,0.0
1742308686,634325642,-0.09716796875,-0.00634765625,0.97021484375,0.30517578125,-0.244140625,-0.30517578125
1742308686,654297596,-0.08984375,-0.00634765625,0.96826171875,0.0,-0.54931640625,0.0
1742308686,669520306,-0.08349609375,-0.00244140625,0.984375,0.3662109375,0.54931640625,-0.1220703125
1742308686,694580384,-0.09619140625,-0.0009765625,0.97900390625,-0.06103515625,-0.54931640625,-0.1220703125
1742308686,714616658,-0.0791015625,-0.00390625,0.96875,0.54931640625,0.54931640625,-0.3662109375
1742308686,734806372,-0.0810546875,-0.01220703125,0.98779296875,1.28173828125,0.54931640625,-0.18310546875
1742308686,754359798,-0.0947265625,-0.00732421875,0.98583984375,1.0986328125,0.732421875,-0.06103515625
1742308686,774182376,-0.08935546875,-0.00048828125,0.9609375,0.67138671875,0.30517578125,-0.244140625
1742308686,794311706,-0.083984375,0.00732421875,0.97314453125,0.48828125,0.1220703125,-0.18310546875
1742308686,814362124,-0.083984375,-0.00927734375,0.9755859375,0.18310546875,-0.30517578125,-0.1220703125
1742308686,834465758,-0.09326171875,-0.00146484375,0.9716796875,-0.1220703125,-0.3662109375,-0.30517578125
1742308686,854640976,-0.09326171875,-0.0068359375,0.97216796875,-0.1220703125,-0.9765625,-0.3662109375
1742308686,874644930,-0.0673828125,-0.00390625,0.982421875,0.18310546875,-0.732421875,-0.48828125
1742308686,894213780,-0.087890625,-0.00244140625,0.97216796875,0.30517578125,-1.3427734375,-0.18310546875
1742308686,914419238,-0.083984375,-0.00732421875,0.9697265625,0.91552734375,-0.06103515625,-0.1220703125
1742308686,936135223,-0.076171875,-0.01123046875,0.9853515625,1.03759765625,0.91552734375,-0.06103515625
1742308686,954246858,-0.0859375,-0.00537109375,0.97998046875,0.9765625,1.3427734375,-0.18310546875
1742308686,975128508,-0.08447265625,-0.0029296875,0.9599609375,0.732421875,1.64794921875,-0.30517578125
1742308686,989496433,-0.1005859375,0.00244140625,0.97314453125,0.3662109375,0.91552734375,-0.18310546875
1742308687,17013695,-0.08740234375,-0.0009765625,0.97119140625,0.3662109375,0.3662109375,-0.06103515625
1742308687,34361619,-0.09423828125,-0.00732421875,0.96875,0.244140625,-0.91552734375,-0.244140625
1742308687,55408742,-0.09912109375,-0.00341796875,0.98583984375,0.48828125,-1.15966796875,-0.1220703125
1742308687,72323994,-0.07861328125,-0.0107421875,0.9755859375,0.54931640625,-1.40380859375,-0.244140625
1742308687,92211725,-0.07568359375,-0.00390625,0.96875,-0.244140625,-1.0986328125,-0.48828125
1742308687,126302391,-0.072265625,0.0029296875,0.97265625,0.06103515625,0.30517578125,-0.30517578125
1742308687,143232908,-0.07177734375,-0.00244140625,0.97314453125,0.6103515625,1.46484375,-0.732421875
1742308687,149782984,-0.08642578125,-0.0029296875,0.97412109375,0.79345703125,1.64794921875,-0.30517578125
1742308687,174321144,-0.09130859375,0.0048828125,0.97265625,0.6103515625,1.15966796875,-0.42724609375
1742308687,190701645,-0.083984375,-0.00146484375,0.9736328125,0.67138671875,0.9765625,-0.3662109375
1742308687,221473113,-0.09130859375,0.00537109375,0.9697265625,0.3662109375,-0.30517578125,-0.30517578125
1742308687,254162659,-0.0888671875,-0.0048828125,0.96875,0.3662109375,-0.8544921875,-0.1220703125
1742308687,254420131,-0.09033203125,-0.00634765625,0.97265625,0.244140625,-1.220703125,-0.3662109375
1742308687,270399992,-0.07763671875,0.001953125,0.97021484375,-0.06103515625,-1.28173828125,-0.30517578125
1742308687,289358700,-0.06591796875,0.0,0.9716796875,0.244140625,-0.48828125,-0.244140625
1742308687,314592059,-0.078125,-0.0087890625,0.98095703125,0.3662109375,0.42724609375,-0.1220703125
1742308687,340052363,-0.09033203125,-0.013671875,0.9794921875,0.8544921875,0.732421875,0.1220703125
1742308687,360373341,-0.07763671875,-0.00732421875,0.97607421875,0.79345703125,1.03759765625,-0.244140625
1742308687,381073200,-0.095703125,-0.0078125,0.97802734375,0.732421875,1.03759765625,-0.18310546875
1742308687,390083786,-0.0888671875,0.00146484375,0.9677734375,0.6103515625,0.732421875,-0.3662109375
1742308687,414366138,-0.08349609375,0.00341796875,0.970703125,0.48828125,0.30517578125,-0.1220703125
1742308687,445370342,-0.08154296875,-0.00341796875,0.96484375,0.06103515625,-0.42724609375,-0.1220703125
1742308687,459454396,-0.10205078125,0.00048828125,0.97607421875,0.18310546875,-0.91552734375,0.06103515625
1742308687,475276882,-0.08154296875,-0.0029296875,0.97607421875,0.0,-0.30517578125,-0.67138671875
1742308687,491716327,-0.07763671875,-0.00634765625,0.9833984375,0.42724609375,-1.03759765625,-0.48828125
1742308687,514597560,-0.08349609375,-0.00634765625,0.978515625,0.244140625,-0.30517578125,0.1220703125
1742308687,539687336,-0.08642578125,-0.0126953125,0.974609375,1.03759765625,0.06103515625,-0.06103515625
1742308687,550268865,-0.08349609375,0.00146484375,0.97509765625,0.6103515625,0.3662109375,-0.30517578125
1742308687,576279504,-0.06201171875,-0.00341796875,0.96875,0.54931640625,0.91552734375,-0.3662109375
1742308687,594396548,-0.0849609375,0.0048828125,0.97314453125,0.54931640625,0.48828125,-0.06103515625
1742308687,614275831,-0.078125,0.00341796875,0.96728515625,0.54931640625,0.30517578125,-0.18310546875
1742308687,634725705,-0.1015625,0.0009765625,0.962890625,0.48828125,-2.25830078125,-0.06103515625
1742308687,650296159,-0.10791015625,-0.03076171875,0.9541015625,-0.67138671875,3.2958984375,0.06103515625
1742308687,670459154,-0.06201171875,0.01220703125,1.01123046875,-0.244140625,1.28173828125,-0.30517578125
1742308687,694854434,-0.10791015625,-0.02490234375,0.96240234375,0.9765625,0.48828125,-0.06103515625
1742308687,719927473,-0.06982421875,0.01416015625,0.98291015625,2.3193359375,-1.40380859375,-0.42724609375
1742308687,737971142,-0.10400390625,-0.0029296875,0.96142578125,1.28173828125,-2.74658203125,0.1220703125
1742308687,749842942,-0.0771484375,0.0205078125,0.96435546875,0.42724609375,-0.67138671875,-0.3662109375
1742308687,769868401,-0.06201171875,-0.01220703125,0.94091796875,-1.8310546875,0.1220703125,-0.244140625
1742308687,794212257,-0.08544921875,-0.00146484375,0.99462890625,-2.13623046875,2.99072265625,-0.67138671875
1742308687,814450803,-0.10009765625,-0.017578125,0.99072265625,0.0,2.44140625,-0.244140625
1742308687,830291817,-0.10888671875,-0.013671875,0.97314453125,2.5634765625,0.8544921875,0.1220703125
1742308687,854583961,-0.083984375,-0.0078125,0.9892578125,3.2958984375,-1.5869140625,-0.06103515625
1742308687,874294892,-0.07421875,-0.0029296875,0.9677734375,2.01416015625,-3.2958984375,-0.244140625
1742308687,894362335,-0.06689453125,0.021484375,0.94775390625,0.18310546875,-1.64794921875,-0.1220703125
1742308687,914295506,-0.078125,0.0029296875,0.95654296875,-1.5869140625,1.3427734375,0.18310546875
1742308687,934432549,-0.10107421875,-0.00341796875,1.005859375,-1.708984375,2.5634765625,-0.1220703125
1742308687,954389399,-0.0869140625,-0.01953125,0.9892578125,0.0,1.953125,-0.67138671875
1742308687,974394602,-0.09912109375,-0.0146484375,0.98095703125,1.77001953125,-0.42724609375,-0.6103515625
1742308687,994500605,-0.09228515625,-0.02197265625,0.9765625,2.44140625,-1.8310546875,-0.42724609375
1742308688,14439249,-0.0810546875,-0.005859375,0.96484375,1.15966796875,-2.38037109375,0.0
1742308688,45978045,-0.0673828125,0.00244140625,0.96875,0.0,-0.54931640625,0.06103515625
1742308688,76467978,-0.09130859375,0.00341796875,0.986328125,-0.3662109375,1.77001953125,-0.244140625
1742308688,87107748,-0.078125,0.00830078125,0.98486328125,-0.06103515625,2.685546875,-0.6103515625
1742308688,92634496,-0.07470703125,0.00732421875,0.96875,0.79345703125,2.62451171875,-0.42724609375
1742308688,109565718,-0.09326171875,-0.0048828125,0.96728515625,0.79345703125,0.3662109375,-0.244140625
1742308688,129415274,-0.09619140625,-0.01904296875,0.970703125,0.1220703125,-0.79345703125,-0.18310546875
1742308688,166615731,-0.09912109375,-0.00927734375,0.97509765625,-0.30517578125,-2.25830078125,0.0
1742308688,188561221,-0.0810546875,0.009765625,0.9833984375,0.54931640625,-1.77001953125,-0.3662109375
1742308688,194135874,-0.0810546875,0.009765625,0.9833984375,0.54931640625,-1.77001953125,-0.3662109375
1742308688,214762837,-0.076171875,0.0087890625,0.970703125,2.01416015625,0.30517578125,-0.3662109375
1742308688,235189385,-0.08056640625,-0.01416015625,0.966796875,1.3427734375,1.03759765625,-0.18310546875
1742308688,254656317,-0.08935546875,-0.00927734375,0.9716796875,0.0,1.8310546875,-0.30517578125
1742308688,274371473,-0.08251953125,-0.01611328125,0.9697265625,-0.67138671875,1.03759765625,-0.42724609375
1742308688,294311716,-0.09521484375,-0.00390625,0.97998046875,-0.06103515625,-0.3662109375,-0.18310546875
1742308688,315367831,-0.087890625,0.0,0.982421875,1.46484375,-0.9765625,-0.1220703125
1742308688,334316556,-0.09814453125,-0.00537109375,0.97607421875,2.197265625,-1.03759765625,-0.06103515625
1742308688,354513951,-0.08447265625,-0.00048828125,0.96826171875,1.15966796875,0.244140625,-0.3662109375
1742308688,374348883,-0.07958984375,-0.005859375,0.951171875,-0.6103515625,-0.1220703125,-0.48828125
1742308688,394492615,-0.06982421875,-0.0029296875,0.97216796875,-1.03759765625,0.18310546875,-0.3662109375
1742308688,414489274,-0.08544921875,-0.015625,0.98486328125,-0.18310546875,-0.8544921875,0.3662109375
1742308688,435492973,-0.1064453125,-0.0087890625,0.9951171875,0.9765625,-0.79345703125,0.1220703125
1742308688,454698498,-0.08349609375,-0.01806640625,0.9755859375,2.13623046875,-0.18310546875,-0.48828125
1742308688,469539704,-0.083984375,-0.00244140625,0.9736328125,1.40380859375,1.5869140625,-0.18310546875
1742308688,490883659,-0.09326171875,-0.00146484375,0.966796875,0.244140625,2.25830078125,-0.3662109375
1742308688,510505087,-0.08349609375,-0.0068359375,0.96826171875,-0.18310546875,1.40380859375,-0.06103515625
1742308688,529787539,-0.09716796875,0.0,0.98828125,0.244140625,-0.244140625,-0.244140625
1742308688,549624647,-0.0888671875,-0.00341796875,0.9794921875,0.732421875,-1.5869140625,-0.3662109375
1742308688,569582619,-0.0947265625,-0.0029296875,0.96923828125,0.54931640625,-2.685546875,-0.1220703125
1742308688,589670735,-0.068359375,-0.00146484375,0.96435546875,-0.06103515625,-0.8544921875,-0.06103515625
1742308688,615488255,-0.0810546875,-0.01171875,0.97119140625,-0.79345703125,-0.244140625,0.1220703125
1742308688,630672629,-0.09130859375,-0.00390625,0.984375,-0.1220703125,1.52587890625,-0.1220703125
1742308688,651652872,-0.07861328125,-0.0087890625,0.98193359375,0.8544921875,0.732421875,-0.3662109375
1742308688,674693466,-0.0908203125,0.0,0.9833984375,1.28173828125,0.30517578125,-0.42724609375
1742308688,689625361,-0.07666015625,-0.00341796875,0.9609375,0.91552734375,-0.30517578125,0.06103515625
1742308688,714379234,-0.091796875,0.0087890625,0.96630859375,0.3662109375,-0.1220703125,0.1220703125
1742308688,734438581,-0.08447265625,-0.0029296875,0.9677734375,0.18310546875,1.0986328125,-0.06103515625
1742308688,749791180,-0.095703125,-0.00732421875,0.9736328125,-0.48828125,0.67138671875,-0.30517578125
1742308688,775482620,-0.09130859375,-0.00048828125,0.98095703125,-0.244140625,0.48828125,-0.244140625
1742308688,791790386,-0.07421875,-0.0068359375,0.97705078125,0.54931640625,-0.42724609375,-0.48828125
1742308688,809543719,-0.091796875,-0.0029296875,0.9794921875,0.91552734375,-1.15966796875,-0.06103515625
1742308688,829906331,-0.07568359375,-0.00830078125,0.96923828125,0.91552734375,-0.9765625,-0.244140625
1742308688,849631119,-0.07080078125,0.0009765625,0.970703125,0.06103515625,-0.91552734375,-0.30517578125
1742308688,874659999,-0.0751953125,0.0,0.9736328125,-0.48828125,1.0986328125,-0.54931640625
1742308688,893184948,-0.0869140625,-0.00634765625,0.97607421875,0.1220703125,1.0986328125,-0.244140625
1742308688,910942409,-0.09619140625,-0.0087890625,0.9853515625,0.9765625,1.15966796875,-0.06103515625
1742308688,934468186,-0.0888671875,-0.00927734375,0.97412109375,1.220703125,0.06103515625,-0.18310546875
1742308688,954295726,-0.083984375,-0.00341796875,0.97119140625,1.3427734375,-0.42724609375,-0.30517578125
1742308688,974786594,-0.0869140625,-0.0048828125,0.9697265625,0.54931640625,-0.6103515625,-0.06103515625
1742308688,994339510,-0.08642578125,-0.00341796875,0.97412109375,-0.1220703125,-0.3662109375,-0.06103515625
1742308689,9709612,-0.08203125,-0.001953125,0.9794921875,-0.1220703125,-0.06103515625,-0.18310546875
1742308689,38288540,-0.09521484375,0.0009765625,0.9814453125,0.244140625,-0.67138671875,-0.1220703125
1742308689,54744178,-0.0830078125,-0.0087890625,0.9814453125,0.91552734375,-0.30517578125,-0.30517578125
1742308689,74464327,-0.0712890625,-0.00830078125,0.97412109375,0.732421875,-0.6103515625,-0.42724609375
1742308689,95339995,-0.0830078125,-0.001953125,0.97216796875,0.3662109375,0.0,-0.244140625
1742308689,114344112,-0.0830078125,-0.00537109375,0.97021484375,0.3662109375,0.6103515625,-0.18310546875
1742308689,134636964,-0.091796875,0.00390625,0.97900390625,0.244140625,0.54931640625,-0.18310546875
1742308689,156640408,-0.091796875,-0.01025390625,0.982421875,0.67138671875,0.79345703125,-0.06103515625
1742308689,174316749,-0.08544921875,-0.00634765625,0.9765625,0.48828125,0.67138671875,-0.6103515625
1742308689,194329954,-0.0859375,-0.00341796875,0.96630859375,0.67138671875,-0.1220703125,-0.3662109375
1742308689,214632598,-0.08154296875,-0.0029296875,0.96484375,0.42724609375,-0.244140625,-0.1220703125
1742308689,234346827,-0.09375,0.0,0.982421875,0.3662109375,-1.03759765625,-0.3662109375
1742308689,254687263,-0.0810546875,0.0,0.97119140625,0.42724609375,-0.48828125,-0.48828125
1742308689,275327091,-0.080078125,0.00244140625,0.9677734375,0.30517578125,-0.244140625,-0.3662109375
1742308689,294336840,-0.080078125,-0.0048828125,0.97509765625,0.3662109375,0.67138671875,0.0
1742308689,314202621,-0.09912109375,-0.001953125,0.9775390625,0.0,0.1220703125,0.244140625
1742308689,334228593,-0.076171875,-0.00390625,0.97216796875,0.30517578125,0.06103515625,-0.48828125
1742308689,354303558,-0.072265625,-0.0068359375,0.98681640625,1.3427734375,0.0,-0.54931640625
1742308689,375789785,-0.087890625,-0.0068359375,0.97705078125,1.40380859375,-0.30517578125,-0.3662109375
1742308689,394383406,-0.091796875,-0.00244140625,0.9599609375,0.8544921875,0.244140625,0.0
1742308689,414530819,-0.0849609375,0.0068359375,0.9677734375,0.06103515625,0.1220703125,0.0
1742308689,430168826,-0.0869140625,-0.00732421875,0.9775390625,-0.06103515625,-0.06103515625,-0.244140625
1742308689,454341100,-0.099609375,-0.0068359375,0.98095703125,0.18310546875,-0.42724609375,-0.244140625
1742308689,474625056,-0.08203125,-0.00390625,0.9775390625,0.48828125,-0.48828125,-0.3662109375
1742308689,494372021,-0.0810546875,-0.0068359375,0.9736328125,0.67138671875,-0.79345703125,-0.30517578125
1742308689,514551145,-0.0869140625,-0.0048828125,0.96875,0.42724609375,-0.42724609375,-0.1220703125
1742308689,534650877,-0.07763671875,-0.0068359375,0.97607421875,0.3662109375,0.244140625,-0.244140625
1742308689,554346322,-0.0791015625,-0.0078125,0.98046875,0.3662109375,0.8544921875,-0.48828125
1742308689,574206919,-0.076171875,-0.0087890625,0.974609375,0.732421875,0.732421875,-0.48828125
1742308689,595129851,-0.08935546875,0.00048828125,0.97119140625,0.8544921875,0.6103515625,0.06103515625
1742308689,614625583,-0.09228515625,-0.00244140625,0.97412109375,0.67138671875,0.54931640625,-0.3662109375
1742308689,634595012,-0.0849609375,-0.005859375,0.96923828125,0.48828125,0.3662109375,-0.30517578125
1742308689,654367800,-0.087890625,0.0009765625,0.9755859375,0.0,-0.1220703125,-0.3662109375
1742308689,669908559,-0.07177734375,-0.00146484375,0.970703125,-0.1220703125,-0.30517578125,-0.48828125
1742308689,694642209,-0.0986328125,0.0009765625,0.9765625,0.18310546875,-1.03759765625,-0.06103515625
1742308689,711825431,-0.08203125,-0.0068359375,0.974609375,0.18310546875,-0.6103515625,-0.18310546875
1742308689,734126442,-0.08154296875,-0.0009765625,0.986328125,0.06103515625,-0.54931640625,-0.54931640625
1742308689,749631873,-0.06982421875,-0.00048828125,0.9736328125,0.54931640625,-0.06103515625,-0.6103515625
1742308689,774604019,-0.07568359375,-0.00439453125,0.96337890625,0.67138671875,0.9765625,-0.18310546875
1742308689,789387274,-0.09765625,0.00146484375,0.97265625,0.42724609375,1.15966796875,-0.06103515625
1742308689,814541212,-0.08203125,-0.00537109375,0.970703125,0.3662109375,0.79345703125,0.06103515625
1742308689,829668563,-0.09912109375,0.00048828125,0.9814453125,0.48828125,-0.1220703125,-0.06103515625
1742308689,854531493,-0.087890625,-0.00244140625,0.97412109375,0.67138671875,-0.8544921875,-0.30517578125
1742308689,874408153,-0.09716796875,-0.00439453125,0.97216796875,-0.06103515625,-1.52587890625,-0.3662109375
1742308689,894659086,-0.072265625,-0.005859375,0.96728515625,-0.06103515625,-0.48828125,-0.3662109375
1742308689,909317957,-0.06689453125,-0.00927734375,0.9775390625,0.0,-0.06103515625,-0.18310546875
1742308689,935396214,-0.08740234375,-0.00732421875,0.982421875,0.48828125,1.0986328125,0.0
1742308689,954527627,-0.07080078125,0.00146484375,0.97314453125,1.3427734375,1.15966796875,-0.3662109375
1742308689,971453825,-0.080078125,0.00048828125,0.9765625,1.77001953125,0.48828125,-0.244140625
1742308689,994340532,-0.09033203125,0.0009765625,0.97021484375,0.6103515625,0.8544921875,-0.18310546875
1742308690,14546921,-0.09228515625,-0.0009765625,0.96630859375,-0.06103515625,0.18310546875,-0.06103515625
1742308690,34751294,-0.08837890625,-0.0078125,0.98876953125,-0.06103515625,0.30517578125,-0.18310546875
1742308690,54428691,-0.099609375,-0.0078125,0.9814453125,-0.67138671875,-1.5869140625,-0.42724609375
1742308690,74687304,-0.0751953125,0.00048828125,0.9677734375,0.91552734375,-1.03759765625,-0.48828125
1742308690,94115454,-0.07373046875,-0.01708984375,0.97900390625,1.03759765625,-1.3427734375,-0.1220703125
1742308690,114486067,-0.0869140625,-0.00634765625,0.98486328125,0.9765625,-0.06103515625,-0.1220703125
1742308690,134533832,-0.07666015625,-0.0078125,0.96484375,0.732421875,0.3662109375,-0.1220703125
1742308690,155123229,-0.08154296875,0.0,0.98681640625,0.6103515625,1.15966796875,-0.06103515625
1742308690,174225523,-0.0849609375,-0.00244140625,0.97802734375,0.6103515625,1.3427734375,-0.1220703125
1742308690,194353288,-0.09033203125,0.0009765625,0.97119140625,0.48828125,0.6103515625,-0.42724609375
1742308690,214231453,-0.09521484375,-0.00244140625,0.96826171875,0.54931640625,-0.18310546875,-0.244140625
1742308690,234526674,-0.08349609375,-0.00927734375,0.9765625,0.1220703125,-0.732421875,-0.18310546875
1742308690,254534343,-0.09130859375,-0.0029296875,0.97412109375,-0.18310546875,-1.52587890625,-0.06103515625
1742308690,274712988,-0.07763671875,-0.01171875,0.96875,0.06103515625,-1.220703125,-0.06103515625
1742308690,301229710,-0.078125,-0.00244140625,0.98583984375,0.732421875,0.244140625,-0.1220703125
1742308690,316950149,-0.0791015625,-0.01318359375,0.966796875,1.15966796875,0.3662109375,-0.1220703125
1742308690,340159897,-0.07861328125,-0.0009765625,0.96923828125,0.54931640625,1.46484375,-0.732421875
1742308690,353995025,-0.07861328125,-0.0009765625,0.9755859375,0.6103515625,1.03759765625,-0.54931640625
1742308690,376757637,-0.083984375,-0.00146484375,0.974609375,0.244140625,1.3427734375,-0.54931640625
1742308690,394191356,-0.09619140625,-0.00146484375,0.9677734375,0.732421875,0.6103515625,0.06103515625
1742308690,411435186,-0.10400390625,-0.0107421875,0.97705078125,0.9765625,-0.18310546875,0.244140625
1742308690,431375048,-0.095703125,-0.0078125,0.97705078125,0.732421875,-0.9765625,0.06103515625
1742308690,449591038,-0.08935546875,0.00244140625,0.97119140625,0.48828125,-1.220703125,-0.06103515625
1742308690,474563056,-0.0830078125,0.0029296875,0.9638671875,-0.18310546875,-1.220703125,-0.244140625
1742308690,494250790,-0.0771484375,0.00244140625,0.9775390625,-0.244140625,-0.6103515625,-0.244140625
1742308690,514339387,-0.07421875,-0.00634765625,0.97021484375,0.1220703125,-0.244140625,0.1220703125
1742308690,530858962,-0.0966796875,-0.00439453125,0.9814453125,0.3662109375,0.244140625,-0.3662109375
1742308690,554162917,-0.07177734375,-0.00732421875,0.97705078125,0.91552734375,0.54931640625,-0.3662109375
1742308690,574480762,-0.07958984375,-0.00439453125,0.97607421875,1.28173828125,0.30517578125,-0.30517578125
1742308690,594378255,-0.0888671875,0.0,0.97119140625,1.0986328125,1.0986328125,0.0
1742308690,614463973,-0.08642578125,-0.00146484375,0.96923828125,0.67138671875,0.54931640625,0.0
1742308690,635028025,-0.0927734375,0.0048828125,0.984375,0.18310546875,0.18310546875,-0.30517578125
1742308690,654197519,-0.078125,-0.00146484375,0.9755859375,0.06103515625,-0.1220703125,-0.30517578125
1742308690,674490340,-0.09228515625,0.0,0.97900390625,0.18310546875,-0.732421875,-0.18310546875
1742308690,695232121,-0.08984375,-0.01318359375,0.96923828125,0.6103515625,-0.67138671875,-0.06103515625
1742308690,710024081,-0.08837890625,-0.00634765625,0.97119140625,0.244140625,-0.91552734375,0.3662109375
1742308690,736666306,-0.09912109375,-0.0126953125,0.97412109375,0.3662109375,-0.18310546875,0.06103515625
1742308690,754870169,-0.0732421875,-0.005859375,0.97802734375,0.54931640625,0.244140625,-0.6103515625
1742308690,776665517,-0.07177734375,-0.00244140625,0.97705078125,0.79345703125,1.03759765625,-0.67138671875
1742308690,794635171,-0.07177734375,0.00390625,0.96875,1.03759765625,1.40380859375,-0.18310546875
1742308690,814328984,-0.1083984375,-0.0048828125,0.9677734375,0.244140625,1.03759765625,0.0
1742308690,831620911,-0.087890625,-0.00146484375,0.974609375,0.18310546875,1.3427734375,-0.48828125
1742308690,854463907,-0.0810546875,-0.00390625,0.97607421875,-0.06103515625,-0.30517578125,-0.3662109375
1742308690,874367000,-0.0888671875,-0.00341796875,0.97607421875,0.3662109375,-0.54931640625,-0.18310546875
1742308690,890034031,-0.08984375,-0.005859375,0.96533203125,0.54931640625,-1.52587890625,-0.1220703125
1742308690,914470210,-0.0869140625,-0.00146484375,0.978515625,0.67138671875,-0.9765625,-0.18310546875
1742308690,934450167,-0.07666015625,-0.00927734375,0.974609375,0.1220703125,-0.79345703125,-0.244140625
1742308690,957524555,-0.07275390625,-0.0068359375,0.98828125,0.3662109375,0.18310546875,-0.30517578125
1742308690,976550881,-0.06591796875,-0.013671875,0.9765625,1.28173828125,1.28173828125,-0.48828125
1742308690,994633271,-0.08349609375,-0.01318359375,0.97802734375,2.197265625,1.220703125,-0.06103515625
1742308691,14682956,-0.0810546875,-0.01171875,0.984375,2.9296875,2.13623046875,-0.42724609375
1742308691,34889346,-0.08349609375,-0.01025390625,0.97412109375,2.74658203125,2.197265625,-0.06103515625
1742308691,52052153,-0.09228515625,0.017578125,0.9560546875,0.54931640625,1.3427734375,-0.30517578125
1742308691,76645357,-0.087890625,0.0185546875,0.95654296875,-1.46484375,0.3662109375,-0.67138671875
1742308691,94364100,-0.10302734375,0.01171875,0.9736328125,-1.953125,-1.28173828125,0.06103515625
1742308691,114420602,-0.09814453125,-0.01611328125,0.970703125,-1.3427734375,-2.44140625,-0.06103515625
1742308691,135038447,-0.10888671875,-0.03125,0.99462890625,0.67138671875,-4.45556640625,-0.06103515625
1742308691,155225477,-0.08154296875,-0.03076171875,0.99560546875,2.44140625,-4.39453125,0.0
1742308691,170947677,-0.06982421875,-0.005859375,0.98046875,2.5634765625,-3.5400390625,-0.06103515625
1742308691,190938451,-0.0576171875,0.0146484375,0.96240234375,3.72314453125,-0.732421875,-0.244140625
1742308691,209534698,-0.05517578125,0.03271484375,0.95849609375,1.03759765625,1.8310546875,-1.03759765625
1742308691,234444765,-0.037109375,0.04296875,0.9453125,-2.3193359375,6.16455078125,-0.54931640625
1742308691,255140275,-0.068359375,0.01611328125,0.951171875,-4.0283203125,7.87353515625,-1.28173828125
1742308691,274730857,-0.10595703125,-0.03173828125,1.00146484375,-3.41796875,7.568359375,-1.40380859375
1742308691,295579838,-0.08740234375,-0.03466796875,0.99609375,-1.8310546875,4.150390625,-3.662109375
1742308691,314375796,-0.1005859375,-0.0263671875,0.9765625,-0.18310546875,-0.1220703125,-6.8359375
1742308691,336557609,-0.13037109375,-0.0224609375,0.990234375,2.8076171875,-5.615234375,-8.11767578125
1742308691,354410912,-0.11328125,0.0068359375,0.97265625,3.23486328125,-7.9345703125,-7.50732421875
1742308691,378315828,-0.04443359375,-0.00048828125,0.9873046875,1.46484375,-5.06591796875,-7.080078125
1742308691,395606635,-0.03662109375,-0.01123046875,0.97314453125,1.15966796875,-0.30517578125,-5.859375
1742308691,409279332,-0.068359375,-0.0048828125,0.96630859375,0.67138671875,4.7607421875,-3.84521484375
1742308691,434546968,-0.10009765625,-0.02099609375,0.9677734375,0.42724609375,6.16455078125,-2.197265625
1742308691,456004045,-0.10107421875,-0.00244140625,0.9931640625,1.28173828125,5.2490234375,-1.52587890625
1742308691,475431651,-0.12841796875,0.00634765625,0.95654296875,2.25830078125,1.15966796875,-1.77001953125
1742308691,489683164,-0.125,0.01708984375,0.95849609375,1.89208984375,-3.47900390625,-1.708984375
1742308691,509395314,-0.10107421875,0.013671875,0.95556640625,-0.18310546875,-5.9814453125,-1.64794921875
1742308691,534230245,-0.08984375,0.01220703125,0.96533203125,-2.62451171875,-5.06591796875,-0.54931640625
1742308691,555146330,-0.060546875,0.00341796875,0.95947265625,-4.33349609375,-4.150390625,-0.3662109375
1742308691,574358737,-0.04345703125,-0.01416015625,0.9951171875,-1.708984375,0.0,-0.06103515625
1742308691,594517990,-0.05126953125,-0.03076171875,1.00537109375,1.220703125,3.96728515625,-0.18310546875
1742308691,614279612,-0.1103515625,-0.0244140625,0.9794921875,3.0517578125,4.5166015625,-0.6103515625
1742308691,636992081,-0.1533203125,-0.0087890625,0.95458984375,1.8310546875,-1.40380859375,-0.3662109375
1742308691,654316296,-0.13818359375,0.0146484375,0.96484375,0.0,-6.4697265625,-0.3662109375
1742308691,674289854,-0.08642578125,0.0205078125,0.96044921875,-1.953125,-9.82666015625,0.0
1742308691,694508308,-0.064453125,0.0126953125,0.97021484375,-2.197265625,-8.97216796875,-0.1220703125
1742308691,714563274,-0.06005859375,-0.00244140625,0.99072265625,-1.5869140625,-6.65283203125,-0.18310546875
1742308691,732283937,-0.0537109375,-0.00830078125,0.970703125,-1.64794921875,-4.7607421875,-0.30517578125
1742308691,759358899,-0.0888671875,-0.0205078125,0.97412109375,-2.5634765625,-4.82177734375,-0.54931640625
1742308691,769517774,-0.06787109375,-0.0234375,0.97021484375,-1.953125,-5.126953125,-0.3662109375
1742308691,794823553,-0.0712890625,-0.0224609375,0.98583984375,-1.0986328125,-4.638671875,-0.244140625
1742308691,814229559,-0.05419921875,-0.01806640625,0.98974609375,0.18310546875,-4.2724609375,-0.79345703125
1742308691,834425709,-0.05712890625,-0.01708984375,0.98388671875,0.732421875,-2.38037109375,-1.0986328125
1742308691,854860962,-0.0390625,-0.0166015625,0.9716796875,1.64794921875,0.67138671875,0.06103515625
1742308691,874317433,-0.02685546875,-0.013671875,0.97998046875,2.25830078125,4.45556640625,-0.244140625
1742308691,894710094,-0.05712890625,-0.00439453125,0.9716796875,2.5634765625,6.591796875,-0.42724609375
1742308691,915145604,-0.0908203125,0.0107421875,0.970703125,1.708984375,6.04248046875,-0.06103515625
1742308691,929451645,-0.091796875,-0.0126953125,0.97998046875,1.40380859375,4.08935546875,-0.06103515625
1742308691,954328656,-0.09765625,0.00048828125,0.95703125,1.03759765625,1.5869140625,-0.1220703125
1742308691,977696612,-0.1201171875,-0.01708984375,0.9716796875,0.30517578125,-3.5400390625,0.244140625
1742308691,994302844,-0.083984375,-0.02197265625,0.9833984375,0.0,-5.859375,0.244140625
1742308692,13637106,-0.0712890625,-0.00244140625,0.96826171875,-0.18310546875,-6.40869140625,-0.1220703125
1742308692,29816427,-0.0498046875,0.00537109375,0.966796875,-1.15966796875,-5.2490234375,0.244140625
1742308692,49774945,0.087890625,-0.00048828125,1.00927734375,-2.74658203125,14.0380859375,0.48828125
1742308692,71484599,-0.10986328125,-0.01123046875,0.94189453125,0.3662109375,19.59228515625,7.75146484375
1742308692,95749643,-0.09326171875,-0.06884765625,1.0400390625,4.7607421875,11.8408203125,7.568359375
1742308692,117213025,-0.14697265625,-0.03759765625,0.9970703125,3.90625,4.638671875,6.28662109375
1742308692,134597625,-0.1279296875,0.01025390625,0.93603515625,4.5166015625,-0.18310546875,6.103515625
1742308692,154319183,-0.0830078125,0.02099609375,0.96044921875,3.84521484375,-2.3193359375,6.40869140625
1742308692,174269478,-0.08349609375,0.04248046875,0.97509765625,1.5869140625,-2.197265625,5.79833984375
1742308692,194809276,-0.04541015625,0.0322265625,0.958984375,-0.91552734375,-0.91552734375,4.8828125
1742308692,209425461,-0.0390625,0.00341796875,0.9560546875,-1.52587890625,0.06103515625,3.96728515625
1742308692,234716137,-0.0517578125,-0.02099609375,0.994140625,-1.28173828125,2.3193359375,2.5634765625
1742308692,259592893,-0.07861328125,-0.03564453125,0.9990234375,0.54931640625,4.2724609375,0.6103515625
1742308692,269678585,-0.09326171875,-0.0107421875,0.98291015625,2.0751953125,3.96728515625,-0.42724609375
1742308692,289492399,-0.1064453125,-0.00341796875,0.95947265625,2.5634765625,1.220703125,-0.48828125
1742308692,314613603,-0.09814453125,0.00341796875,0.97802734375,3.11279296875,-0.244140625,-0.54931640625
1742308692,330151004,-0.10693359375,-0.00048828125,0.978515625,1.40380859375,-2.86865234375,-0.1220703125
1742308692,349378867,-0.09228515625,0.0068359375,0.9609375,-0.18310546875,-3.90625,-0.30517578125
1742308692,369810537,-0.06884765625,0.00244140625,0.962890625,-1.0986328125,-4.8828125,-0.18310546875
1742308692,390637887,-0.0693359375,-0.00732421875,0.98974609375,-0.9765625,-3.173828125,0.1220703125
1742308692,414372724,-0.06494140625,-0.00390625,0.97607421875,-0.67138671875,-0.67138671875,-0.06103515625
1742308692,429455085,-0.0625,-0.01171875,0.98046875,0.1220703125,0.91552734375,-0.42724609375
1742308692,459302398,-0.07080078125,-0.0087890625,0.98583984375,1.03759765625,2.01416015625,-0.54931640625
1742308692,470882041,-0.0791015625,-0.00048828125,0.9677734375,1.0986328125,2.01416015625,-0.48828125
1742308692,490015184,-0.0966796875,-0.0009765625,0.97021484375,0.6103515625,0.732421875,0.1220703125
1742308692,515241156,-0.0986328125,-0.01708984375,0.97998046875,0.9765625,0.18310546875,0.06103515625
1742308692,530091549,-0.0947265625,-0.00537109375,0.98681640625,1.46484375,-0.8544921875,-0.30517578125
1742308692,554758161,-0.0771484375,-0.0009765625,0.96630859375,1.40380859375,-0.79345703125,-0.48828125
1742308692,577449990,-0.072265625,-0.0009765625,0.97607421875,0.91552734375,0.0,0.0
1742308692,594637534,-0.0810546875,0.00048828125,0.97314453125,0.6103515625,0.244140625,0.0
1742308692,617297331,-0.0732421875,-0.001953125,0.978515625,0.8544921875,1.40380859375,-0.06103515625
1742308692,635248299,-0.0703125,-0.00439453125,0.97802734375,1.52587890625,2.3193359375,-0.244140625
1742308692,654706753,-0.08203125,-0.0029296875,0.97265625,1.0986328125,3.11279296875,-0.3662109375
1742308692,675116408,-0.08935546875,-0.00048828125,0.9658203125,0.54931640625,3.11279296875,-0.30517578125
1742308692,695514126,-0.09423828125,-0.00439453125,0.96923828125,0.6103515625,1.5869140625,-0.1220703125
1742308692,714683749,-0.09619140625,-0.005859375,0.9794921875,0.3662109375,-0.244140625,-0.3662109375
1742308692,734622364,-0.09912109375,-0.001953125,0.9794921875,0.3662109375,-1.953125,-0.3662109375
1742308692,754683730,-0.08251953125,0.00244140625,0.966796875,0.42724609375,-2.3193359375,-0.244140625
1742308692,771690922,-0.07373046875,0.0009765625,0.97509765625,-0.06103515625,-1.3427734375,-0.244140625
1742308692,789629601,-0.06982421875,-0.0009765625,0.97509765625,0.06103515625,-0.732421875,0.1220703125
1742308692,814265942,-0.09423828125,-0.00830078125,0.99267578125,-0.42724609375,2.74658203125,0.79345703125
1742308692,834320172,-0.0478515625,-0.02001953125,0.984375,-0.244140625,5.0048828125,-0.30517578125
1742308692,855233762,-0.09521484375,-0.00439453125,0.982421875,0.67138671875,4.45556640625,-0.244140625
1742308692,874398425,-0.080078125,-0.02490234375,0.974609375,1.708984375,3.35693359375,-0.06103515625
1742308692,895283759,-0.1201171875,0.00244140625,0.97216796875,2.685546875,1.40380859375,0.1220703125
1742308692,914290566,-0.1162109375,0.0068359375,0.9658203125,2.74658203125,-2.50244140625,-0.06103515625
1742308692,934220861,-0.10107421875,0.00048828125,0.98974609375,1.28173828125,-4.94384765625,0.3662109375
1742308692,949813237,-0.07666015625,0.01513671875,0.99169921875,-0.06103515625,-2.44140625,-0.1220703125
1742308692,975527209,-0.06640625,0.0078125,0.9423828125,-1.220703125,-2.38037109375,-0.244140625
1742308692,996083231,-0.10009765625,-0.00927734375,0.9833984375,-0.48828125,-2.01416015625,0.48828125
1742308693,14255831,-0.072265625,-0.0107421875,0.99755859375,-0.30517578125,-1.5869140625,0.42724609375
1742308693,34421774,-0.0693359375,-0.00634765625,0.96826171875,-0.30517578125,0.30517578125,0.3662109375
1742308693,54813797,-0.0732421875,-0.001953125,0.96484375,0.3662109375,1.3427734375,0.732421875
1742308693,74308252,-0.10302734375,-0.01123046875,0.978515625,0.9765625,2.685546875,1.220703125
1742308693,94487155,-0.11865234375,0.005859375,0.97607421875,0.79345703125,-1.708984375,0.48828125
1742308693,114809194,-0.123046875,0.0263671875,0.94384765625,-0.48828125,-8.23974609375,-0.9765625
1742308693,134448641,-0.12451171875,0.01171875,0.96240234375,-2.3193359375,-14.70947265625,-1.708984375
1742308693,150316410,-0.06982421875,-0.0048828125,0.99267578125,-3.90625,-17.2119140625,-2.74658203125
1742308693,174941487,-0.03515625,-0.0068359375,0.97216796875,-3.47900390625,-15.44189453125,-4.08935546875
1742308693,189356585,-0.0087890625,-0.02978515625,0.97021484375,-1.40380859375,-13.427734375,-4.57763671875
1742308693,214237214,0.02490234375,-0.04248046875,1.01220703125,1.52587890625,-6.04248046875,-3.7841796875
1742308693,229338455,0.00390625,-0.01171875,1.0068359375,3.0517578125,3.84521484375,-4.150390625
1742308693,254713644,-0.03662109375,-0.001953125,0.9609375,2.99072265625,9.58251953125,-5.18798828125
1742308693,274915939,-0.09326171875,-0.00732421875,0.958984375,3.2958984375,7.9345703125,-4.8828125
1742308693,294521146,-0.08251953125,-0.00537109375,0.98291015625,2.86865234375,5.126953125,-3.7841796875
1742308693,314330129,-0.05712890625,0.01416015625,0.98779296875,1.5869140625,9.3994140625,-2.62451171875
1742308693,334766408,-0.1044921875,0.01416015625,0.94287109375,0.18310546875,10.1318359375,-0.30517578125
1742308693,355199167,-0.0859375,0.01025390625,0.955078125,-0.67138671875,4.94384765625,-0.1220703125
1742308693,374705334,-0.10888671875,-0.00634765625,0.99755859375,-0.30517578125,2.25830078125,-0.48828125
1742308693,397147724,-0.0859375,-0.00537109375,0.96435546875,-0.732421875,-0.67138671875,-0.244140625
1742308693,414376965,-0.11767578125,0.0048828125,0.97314453125,-0.6103515625,-1.46484375,-0.18310546875
1742308693,434300444,-0.0859375,-0.0205078125,0.9794921875,0.06103515625,-3.2958984375,-0.1220703125
1742308693,450575124,-0.07080078125,0.00146484375,0.99267578125,0.8544921875,-4.638671875,0.30517578125
1742308693,474577258,-0.07373046875,0.01123046875,0.94677734375,0.42724609375,-4.45556640625,-0.1220703125
1742308693,494351681,-0.06396484375,0.01806640625,0.9599609375,-1.220703125,-5.43212890625,-0.3662109375
1742308693,515388120,-0.0576171875,0.00244140625,0.98095703125,-2.0751953125,-4.82177734375,-0.1220703125
1742308693,534418991,-0.05517578125,-0.01318359375,0.98583984375,-2.197265625,-3.0517578125,-0.18310546875
1742308693,554529670,-0.06103515625,-0.02197265625,0.96337890625,-1.03759765625,-2.3193359375,0.0
1742308693,574616893,-0.0380859375,-0.01318359375,0.9814453125,0.244140625,-0.30517578125,0.0
1742308693,594368404,-0.04052734375,-0.01416015625,0.9951171875,0.91552734375,2.9296875,-0.06103515625
1742308693,614485131,-0.068359375,-0.01611328125,0.98095703125,1.3427734375,4.5166015625,0.1220703125
1742308693,634790722,-0.0654296875,-0.01318359375,0.97216796875,1.708984375,4.39453125,-0.3662109375
1742308693,654374010,-0.0615234375,0.0,0.9794921875,1.8310546875,3.47900390625,-0.54931640625
1742308693,669213075,-0.08837890625,-0.0029296875,0.96728515625,2.01416015625,2.38037109375,-0.42724609375
1742308693,694437960,-0.10107421875,0.00244140625,0.96142578125,2.0751953125,-0.42724609375,-0.1220703125
1742308693,714451135,-0.0966796875,-0.00830078125,0.9814453125,2.62451171875,-3.96728515625,0.06103515625
1742308693,734371702,-0.0390625,-0.00341796875,0.9853515625,2.74658203125,-4.57763671875,0.0
1742308693,754315341,-0.03125,-0.00341796875,0.96630859375,3.173828125,-0.67138671875,-0.244140625
1742308693,774355268,-0.02490234375,-0.0068359375,0.9619140625,3.7841796875,2.197265625,0.1220703125
1742308693,794353723,-0.0185546875,0.001953125,0.99462890625,4.33349609375,4.150390625,0.18310546875
1742308693,814318642,-0.0546875,0.01123046875,0.97216796875,4.150390625,9.033203125,-0.30517578125
1742308693,834413193,-0.07373046875,0.0234375,0.953125,1.28173828125,9.58251953125,-0.54931640625
1742308693,849724707,-0.12158203125,0.017578125,0.9580078125,-0.06103515625,7.01904296875,-0.79345703125
1742308693,874373848,-0.13037109375,-0.0009765625,0.9443359375,-1.03759765625,-0.30517578125,-0.8544921875
1742308693,894608015,-0.1083984375,0.01953125,0.98388671875,-0.9765625,-6.53076171875,-1.64794921875
1742308693,914281414,-0.03515625,0.0185546875,0.9716796875,-2.13623046875,-6.7138671875,-2.0751953125
1742308693,929685471,-0.0478515625,0.00439453125,0.96435546875,-3.11279296875,-0.244140625,-0.1220703125
1742308693,954203060,-0.06005859375,-0.00439453125,0.95703125,-2.13623046875,7.4462890625,2.3193359375
1742308693,974430475,-0.05078125,-0.01953125,0.98388671875,-1.46484375,12.8173828125,1.953125
1742308693,995678402,-0.13525390625,-0.001953125,0.990234375,0.67138671875,13.24462890625,3.0517578125
1742308694,12759418,-0.1484375,-0.0224609375,0.98974609375,0.8544921875,6.9580078125,2.62451171875
1742308694,34644753,-0.13916015625,-0.02197265625,0.97607421875,2.50244140625,-1.28173828125,2.50244140625
1742308694,53030633,-0.1083984375,0.00732421875,0.96435546875,2.8076171875,-3.7841796875,2.38037109375
1742308694,70258818,-0.07080078125,0.013671875,0.98046875,3.0517578125,-4.39453125,1.0986328125
1742308694,94518424,-0.05810546875,0.029296875,0.9638671875,1.8310546875,-3.7841796875,-0.30517578125
1742308694,115923663,-0.05078125,0.02197265625,0.9580078125,0.732421875,-2.62451171875,-0.18310546875
1742308694,135266343,-0.05712890625,0.0009765625,0.97216796875,-1.15966796875,0.48828125,-0.3662109375
1742308694,150498433,-0.0693359375,-0.00927734375,0.98095703125,-0.9765625,2.3193359375,-0.244140625
1742308694,174196631,-0.09912109375,-0.015625,0.97998046875,-0.8544921875,2.50244140625,-0.30517578125
1742308694,190295728,-0.087890625,-0.01708984375,0.98779296875,0.48828125,2.62451171875,-0.244140625
1742308694,209762984,-0.10498046875,-0.009765625,0.98974609375,1.46484375,0.9765625,0.0
1742308694,231365215,-0.1015625,-0.0009765625,0.98388671875,1.89208984375,0.18310546875,-0.244140625
1742308694,251356630,-0.0927734375,0.005859375,0.95751953125,1.3427734375,-0.9765625,-0.244140625
1742308694,270361679,-0.09033203125,0.00537109375,0.96826171875,1.28173828125,-1.8310546875,-0.244140625
1742308694,292138245,-0.08056640625,-0.00146484375,0.97119140625,0.67138671875,-1.52587890625,0.0
1742308694,314717724,-0.08447265625,0.00537109375,0.9765625,0.3662109375,-1.89208984375,0.0
1742308694,330786965,-0.07177734375,0.00439453125,0.97998046875,0.18310546875,-1.0986328125,-0.244140625
1742308694,354794827,-0.08837890625,0.0087890625,0.96826171875,-0.18310546875,-1.40380859375,-0.244140625
1742308694,376677474,-0.08544921875,-0.0068359375,0.9755859375,0.54931640625,0.3662109375,0.244140625
1742308694,394758427,-0.0771484375,-0.00146484375,0.98046875,0.54931640625,0.30517578125,0.8544921875
1742308694,417153649,-0.087890625,0.00244140625,0.9765625,0.6103515625,1.0986328125,1.0986328125
1742308694,437351753,-0.07470703125,0.00537109375,0.97802734375,0.67138671875,1.77001953125,1.0986328125
1742308694,455085377,-0.09423828125,0.0029296875,0.9755859375,1.220703125,1.708984375,1.46484375
1742308694,474339129,-0.08349609375,0.00341796875,0.9765625,1.03759765625,1.0986328125,1.3427734375
1742308694,494283121,-0.10595703125,-0.0029296875,0.9716796875,1.03759765625,0.30517578125,1.40380859375
1742308694,513631337,-0.0810546875,0.0244140625,0.9775390625,1.5869140625,-0.06103515625,2.44140625
1742308694,534652544,-0.09423828125,0.001953125,0.97265625,-0.1220703125,-0.9765625,1.52587890625
1742308694,550318330,-0.0751953125,0.00390625,0.94677734375,-0.1220703125,-0.91552734375,1.953125
1742308694,575286575,-0.07958984375,0.00830078125,0.9873046875,-0.244140625,-0.244140625,1.953125
1742308694,589438889,-0.07861328125,-0.00830078125,0.97021484375,-0.732421875,0.1220703125,2.0751953125
1742308694,615729278,-0.07958984375,0.00146484375,0.97607421875,-0.8544921875,0.9765625,1.708984375
1742308694,634509494,-0.0947265625,-0.00634765625,0.982421875,-0.54931640625,0.06103515625,2.01416015625
1742308694,654500846,-0.0751953125,-0.00537109375,0.9873046875,0.67138671875,0.48828125,1.40380859375
1742308694,674445958,-0.0810546875,-0.00390625,0.98486328125,1.5869140625,0.18310546875,1.0986328125
1742308694,690788671,-0.07958984375,0.00341796875,0.970703125,1.46484375,0.1220703125,0.42724609375
1742308694,714512053,-0.0859375,0.0068359375,0.97509765625,1.220703125,0.1220703125,-0.1220703125
1742308694,734412365,-0.07666015625,0.00341796875,0.9775390625,1.3427734375,-0.6103515625,-0.18310546875
1742308694,754299012,-0.0673828125,-0.0009765625,0.97900390625,0.9765625,2.38037109375,-0.18310546875
1742308694,775813787,-0.06103515625,-0.00537109375,0.9833984375,0.67138671875,3.662109375,0.30517578125
1742308694,791442517,-0.1171875,-0.0068359375,0.97119140625,1.52587890625,4.45556640625,0.42724609375
1742308694,814461867,-0.1376953125,0.00537109375,0.97412109375,1.0986328125,-0.79345703125,-0.1220703125
1742308694,834699427,-0.181640625,0.0068359375,0.95849609375,1.03759765625,-10.31494140625,-0.42724609375
1742308694,851459068,-0.12890625,0.02734375,0.95703125,-1.03759765625,-19.1650390625,-1.3427734375
1742308694,877698321,-0.0458984375,0.037109375,0.97021484375,-3.7841796875,-22.4609375,-2.9296875
1742308694,889507980,-0.0205078125,0.01416015625,0.978515625,-3.41796875,-20.08056640625,-3.47900390625
1742308694,914578465,-0.0078125,-0.005859375,0.96728515625,-2.25830078125,-15.31982421875,-4.39453125
1742308694,930135803,-0.0341796875,0.00341796875,0.97119140625,-1.64794921875,-12.3291015625,-5.615234375
1742308694,954227889,-0.04931640625,-0.0029296875,0.99560546875,-1.5869140625,-10.009765625,-6.103515625
1742308694,974510504,-0.05517578125,0.005859375,0.9755859375,-2.44140625,-9.21630859375,-6.8359375
1742308694,995272832,-0.08056640625,-0.00634765625,0.97314453125,-1.64794921875,-11.474609375,-7.080078125
1742308695,16643351,-0.05224609375,-0.0244140625,0.97119140625,-0.8544921875,-14.5263671875,-6.89697265625
1742308695,34495632,-0.03515625,-0.01611328125,0.97705078125,-0.91552734375,-17.88330078125,-6.89697265625
1742308695,54419944,-0.029296875,-0.0078125,1.0,-1.52587890625,-20.08056640625,-6.8359375
1742308695,72257409,-0.0263671875,-0.0146484375,0.96826171875,-1.15966796875,-21.05712890625,-6.8359375
1742308695,94504633,-0.04248046875,-0.0322265625,1.005859375,0.6103515625,-22.5830078125,-6.04248046875
1742308695,114306513,-0.01513671875,-0.0791015625,1.01611328125,4.39453125,-21.484375,-3.90625
1742308695,134569993,0.03564453125,-0.05078125,0.99462890625,6.77490234375,-18.1884765625,-2.13623046875
1742308695,155926273,0.07373046875,0.02978515625,0.94384765625,6.9580078125,-9.27734375,-1.40380859375
1742308695,174450713,0.09619140625,0.080078125,0.92236328125,3.96728515625,1.8310546875,-1.28173828125
1742308695,194892913,0.064453125,0.06103515625,0.94580078125,-0.42724609375,11.29150390625,-0.79345703125
1742308695,214455370,0.09228515625,0.02490234375,0.9287109375,-2.99072265625,19.59228515625,0.42724609375
1742308695,234284866,0.02587890625,0.0595703125,0.9375,-5.79833984375,29.23583984375,-2.50244140625
1742308695,252085371,-0.01416015625,0.04833984375,0.95703125,-8.9111328125,30.517578125,-4.21142578125
1742308695,274325810,-0.09228515625,0.03173828125,0.99853515625,-8.7890625,27.4658203125,-5.92041015625
1742308695,294370122,-0.1318359375,-0.0615234375,1.0087890625,-5.18798828125,19.6533203125,-6.2255859375
1742308695,315433154,-0.125,-0.1376953125,1.0400390625,0.732421875,9.70458984375,-5.615234375
1742308695,335448890,-0.1015625,-0.09423828125,1.0205078125,4.21142578125,-1.28173828125,-4.150390625
1742308695,354520243,0.072265625,-0.0458984375,0.9853515625,7.01904296875,-10.25390625,-2.3193359375
1742308695,376378122,0.10986328125,-0.0390625,0.9892578125,8.544921875,6.34765625,2.9296875
1742308695,389478085,0.07763671875,-0.001953125,0.93115234375,8.23974609375,36.80419921875,6.8359375
1742308695,414683259,0.0322265625,0.03466796875,0.94921875,5.0048828125,61.09619140625,12.39013671875
1742308695,432441172,-0.146484375,0.0302734375,0.96142578125,0.30517578125,57.43408203125,20.3857421875
1742308695,454732715,-0.2451171875,-0.01904296875,1.015625,-2.3193359375,39.794921875,25.08544921875
1742308695,475905411,-0.21240234375,-0.00634765625,0.9208984375,-4.2724609375,13.73291015625,27.64892578125
1742308695,494367932,-0.17041015625,-0.02294921875,0.896484375,-3.72314453125,2.9296875,27.2216796875
1742308695,512509493,-0.12109375,-0.01318359375,1.0126953125,0.1220703125,-9.27734375,21.30126953125
1742308695,534553804,-0.12548828125,0.00244140625,1.017578125,1.46484375,-15.44189453125,16.29638671875
1742308695,561362434,-0.11376953125,0.017578125,0.943359375,1.52587890625,-22.52197265625,9.8876953125
1742308695,571630462,-0.09716796875,0.01904296875,0.95556640625,1.40380859375,-25.7568359375,3.90625
1742308695,597491988,-0.05224609375,0.009765625,1.01318359375,2.0751953125,-15.31982421875,-1.953125
1742308695,613632813,-0.03857421875,0.04052734375,0.99169921875,0.48828125,-5.0048828125,-6.2255859375
1742308695,631901606,-0.05615234375,0.02978515625,0.9111328125,-0.244140625,-0.8544921875,-8.056640625
1742308695,652314846,-0.07666015625,-0.001953125,0.99951171875,0.42724609375,-0.06103515625,-6.65283203125
1742308695,680569171,-0.0703125,-0.005859375,1.00634765625,0.18310546875,2.8076171875,-6.16455078125
1742308695,692155502,-0.091796875,-0.00439453125,0.96044921875,1.5869140625,3.173828125,-5.31005859375
1742308695,719560836,-0.1201171875,-0.01171875,0.97314453125,1.40380859375,1.220703125,-4.5166015625
1742308695,740288764,-0.12841796875,-0.00732421875,0.98291015625,0.6103515625,-1.0986328125,-4.0283203125
1742308695,756430037,-0.11572265625,-0.00244140625,0.98046875,0.3662109375,-2.685546875,-2.8076171875
1742308695,769504432,-0.109375,0.0107421875,0.9638671875,0.0,-3.7841796875,-1.52587890625
1742308695,798074725,-0.0888671875,0.009765625,0.9697265625,0.1220703125,-3.11279296875,0.3662109375
1742308695,810236032,-0.07177734375,0.0068359375,0.98095703125,-0.244140625,-2.25830078125,0.3662109375
1742308695,829400793,-0.05029296875,0.00244140625,0.96435546875,-0.42724609375,-0.48828125,-0.06103515625
1742308695,850459825,-0.06298828125,-0.00244140625,0.97509765625,-0.54931640625,0.9765625,-0.42724609375
1742308695,875320903,-0.07568359375,-0.015625,0.98193359375,-0.06103515625,2.8076171875,-0.30517578125
1742308695,894503551,-0.07568359375,-0.0068359375,0.98583984375,1.0986328125,4.0283203125,-0.244140625
1742308695,913094840,-0.09228515625,-0.00439453125,0.97705078125,2.197265625,3.11279296875,-0.1220703125
1742308695,935091375,-0.08935546875,0.00537109375,0.97705078125,1.8310546875,2.3193359375,-0.48828125
1742308695,954513544,-0.1025390625,0.01318359375,0.9619140625,0.54931640625,0.1220703125,-0.18310546875
1742308695,969671970,-0.0810546875,0.01318359375,0.95849609375,-0.3662109375,-1.46484375,0.0
1742308695,995930456,-0.0986328125,0.0048828125,0.97314453125,-1.46484375,-3.173828125,0.1220703125
1742308696,15178544,-0.0888671875,-0.01171875,0.982421875,-0.79345703125,-3.7841796875,0.1220703125
1742308696,38303784,-0.08203125,-0.02001953125,0.99755859375,0.244140625,-3.47900390625,-0.18310546875
1742308696,54697730,-0.06640625,-0.0107421875,0.9736328125,2.62451171875,-1.8310546875,-0.30517578125
1742308696,74910874,-0.05029296875,0.001953125,0.96728515625,2.62451171875,0.30517578125,0.06103515625
1742308696,94896531,-0.06396484375,0.00927734375,0.978515625,0.91552734375,2.8076171875,-0.06103515625
1742308696,114370572,-0.07958984375,0.01123046875,0.96337890625,-0.91552734375,4.0283203125,-0.18310546875
1742308696,135251236,-0.10107421875,0.00244140625,0.9765625,-0.8544921875,3.11279296875,-0.48828125
1742308696,149568863,-0.10791015625,-0.013671875,0.9814453125,0.18310546875,2.13623046875,-0.3662109375
1742308696,171403703,-0.09375,-0.01953125,0.9853515625,1.28173828125,0.06103515625,-0.244140625
1742308696,194348494,-0.0947265625,-0.0107421875,0.97119140625,1.3427734375,-0.3662109375,-0.1220703125
1742308696,214480199,-0.0869140625,-0.001953125,0.96826171875,1.40380859375,-1.15966796875,-0.18310546875
1742308696,235326143,-0.083984375,0.0205078125,0.96533203125,0.67138671875,-1.40380859375,-0.244140625
1742308696,249846266,-0.0634765625,0.01416015625,0.96875,0.18310546875,-0.6103515625,-0.06103515625
1742308696,274347441,-0.07373046875,0.0166015625,0.96826171875,-0.8544921875,-0.1220703125,-0.30517578125
1742308696,294745226,-0.0888671875,-0.01025390625,0.970703125,-0.8544921875,1.03759765625,0.1220703125
1742308696,314137730,-0.08935546875,-0.01318359375,0.9873046875,-0.8544921875,1.28173828125,-0.06103515625
1742308696,330255517,-0.0908203125,-0.01611328125,0.9853515625,0.3662109375,1.220703125,-0.244140625
1742308696,349393526,-0.083984375,-0.00537109375,0.974609375,1.52587890625,0.54931640625,-0.48828125
1742308696,369504302,-0.08544921875,0.00732421875,0.96826171875,1.64794921875,0.1220703125,0.0
1742308696,390239207,-0.08349609375,0.01220703125,0.96826171875,0.48828125,0.3662109375,0.0
1742308696,411786751,-0.10009765625,0.005859375,0.97607421875,-0.9765625,0.06103515625,-0.244140625
1742308696,434544022,-0.09130859375,-0.0556640625,1.033203125,0.6103515625,-0.8544921875,-0.6103515625
1742308696,454792399,-0.076171875,-0.048828125,0.98974609375,7.32421875,-1.0986328125,-0.06103515625
1742308696,470644009,-0.05126953125,-0.013671875,0.9912109375,10.68115234375,2.74658203125,0.54931640625
1742308696,494437984,-0.060546875,0.01806640625,1.0078125,10.07080078125,7.568359375,0.1220703125
1742308696,514275193,-0.0849609375,0.1005859375,0.9736328125,4.7607421875,8.23974609375,-1.15966796875
1742308696,535970897,-0.09814453125,0.06298828125,0.900390625,-2.685546875,4.5166015625,-2.9296875
1742308696,554335562,-0.09814453125,0.03173828125,0.9296875,-5.43212890625,1.77001953125,-4.82177734375
1742308696,574273347,-0.0634765625,0.0146484375,0.9599609375,-6.8359375,-1.89208984375,-8.30078125
1742308696,595812731,-0.05908203125,0.01025390625,1.00634765625,-6.7138671875,-6.8359375,-12.87841796875
1742308696,615601268,-0.0615234375,0.021484375,1.00439453125,-7.080078125,-10.498046875,-15.869140625
1742308696,634390541,-0.04638671875,0.01806640625,0.9580078125,-9.3994140625,-12.39013671875,-16.78466796875
1742308696,650559879,-0.01220703125,0.0185546875,1.001953125,-12.939453125,-13.48876953125,-17.51708984375
1742308696,674428926,0.00439453125,0.03369140625,1.13818359375,-16.29638671875,-14.0380859375,-20.1416015625
1742308696,694308471,-0.0087890625,-0.00390625,1.23095703125,-16.4794921875,-14.34326171875,-23.74267578125
1742308696,714497327,-0.00537109375,-0.02734375,1.20751953125,-15.9912109375,-16.90673828125,-23.98681640625
1742308696,734941832,0.0146484375,-0.03369140625,1.18505859375,-17.02880859375,-17.2119140625,-23.13232421875
1742308696,761495582,0.01806640625,-0.05419921875,1.16796875,-20.44677734375,-14.404296875,-23.01025390625
1742308696,774261242,0.013671875,-0.05810546875,1.15087890625,-21.728515625,-13.0615234375,-22.0947265625
1742308696,794423986,0.01904296875,-0.06005859375,1.125,-25.146484375,-11.1083984375,-21.66748046875
1742308696,809660045,0.01318359375,-0.05615234375,1.1064453125,-26.91650390625,-9.033203125,-21.1181640625
1742308696,829474213,-0.00048828125,-0.04345703125,1.0595703125,-27.64892578125,-7.50732421875,-21.54541015625
1742308696,854516060,-0.015625,-0.0126953125,1.02099609375,-30.09033203125,-5.7373046875,-21.05712890625
1742308696,874699285,-0.03515625,-0.0146484375,0.9970703125,-32.8369140625,-4.57763671875,-20.1416015625
1742308696,894482637,-0.04736328125,-0.02685546875,0.99169921875,-33.50830078125,-5.9814453125,-20.20263671875
1742308696,909330408,-0.05810546875,-0.029296875,0.96826171875,-32.65380859375,-8.544921875,-19.8974609375
1742308696,929439521,-0.05908203125,-0.01806640625,0.94287109375,-31.31103515625,-10.68115234375,-18.98193359375
1742308696,955955447,-0.05078125,-0.0078125,0.935546875,-30.45654296875,-11.5966796875,-17.4560546875
1742308696,974482288,-0.0537109375,-0.00341796875,0.95947265625,-28.80859375,-12.14599609375,-15.68603515625
1742308696,994688681,-0.056640625,-0.02099609375,0.9794921875,-26.3671875,-12.0849609375,-15.0146484375
1742308697,11400035,-0.06689453125,-0.029296875,0.955078125,-23.681640625,-11.04736328125,-13.671875
1742308697,34563515,-0.0830078125,-0.03125,0.9375,-21.78955078125,-10.25390625,-12.0849609375
1742308697,50822805,-0.0947265625,-0.03515625,0.943359375,-19.22607421875,-9.521484375,-9.27734375
1742308697,74370509,-0.095703125,-0.04736328125,0.94140625,-15.56396484375,-9.27734375,-5.126953125
1742308697,94628550,-0.06591796875,-0.05224609375,0.9345703125,-12.87841796875,-8.6669921875,-1.89208984375
1742308697,114573343,-0.0888671875,-0.06494140625,0.9638671875,-9.1552734375,-7.2021484375,0.8544921875
1742308697,134539448,-0.12939453125,-0.0654296875,0.9599609375,-5.9814453125,-6.7138671875,5.0048828125
1742308697,149673811,-0.12939453125,-0.06494140625,0.93505859375,-2.685546875,-6.28662109375,9.58251953125
1742308697,174393803,-0.1181640625,-0.0673828125,0.91357421875,-1.3427734375,-6.4697265625,13.48876953125
1742308697,189734021,-0.11572265625,-0.0712890625,0.9248046875,-0.67138671875,-6.77490234375,16.66259765625
1742308697,214558173,-0.1103515625,-0.06396484375,0.96044921875,1.64794921875,-8.23974609375,20.5078125
1742308697,232236535,-0.109375,-0.08154296875,0.98095703125,6.103515625,-10.3759765625,26.4892578125
1742308697,254376591,-0.091796875,-0.0771484375,0.96875,8.36181640625,-12.3291015625,29.47998046875
1742308697,274267464,-0.07080078125,-0.09228515625,0.97412109375,11.71875,-14.7705078125,32.53173828125
1742308697,295436865,-0.0693359375,-0.10205078125,0.97021484375,15.0146484375,-19.34814453125,35.2783203125
1742308697,314303802,-0.0556640625,-0.0849609375,0.9462890625,16.41845703125,-23.74267578125,37.2314453125
1742308697,334369331,-0.03955078125,-0.06494140625,0.94921875,17.4560546875,-29.23583984375,40.58837890625
1742308697,354298125,-0.0087890625,-0.0732421875,0.98046875,18.85986328125,-34.912109375,44.5556640625
1742308697,374329222,0.0107421875,-0.09326171875,0.97607421875,20.81298828125,-39.794921875,48.52294921875
1742308697,394322879,0.0595703125,-0.09033203125,0.95166015625,20.32470703125,-44.73876953125,51.26953125
1742308697,414441432,0.0673828125,-0.13671875,0.9931640625,21.6064453125,-47.8515625,53.03955078125
1742308697,434427537,0.10791015625,-0.1494140625,0.98291015625,20.81298828125,-48.33984375,54.99267578125
1742308697,454518410,0.1201171875,-0.14990234375,0.9599609375,21.66748046875,-49.072265625,58.9599609375
1742308697,474488707,0.15625,-0.16162109375,0.96484375,23.37646484375,-48.828125,62.98828125
1742308697,494267996,0.19873046875,-0.158203125,0.93408203125,23.681640625,-48.15673828125,66.2841796875
1742308697,516758933,0.1953125,-0.162109375,0.927734375,23.86474609375,-44.86083984375,71.59423828125
1742308697,534316527,0.2236328125,-0.16943359375,0.91162109375,24.23095703125,-41.32080078125,75.13427734375
1742308697,555788839,0.23974609375,-0.173828125,0.91259765625,25.5126953125,-35.5224609375,79.89501953125
1742308697,574359617,0.24267578125,-0.17822265625,0.91259765625,27.03857421875,-30.09033203125,83.8623046875
1742308697,594740442,0.2158203125,-0.16015625,0.890625,27.64892578125,-26.85546875,87.09716796875
1742308697,614531315,0.19873046875,-0.14404296875,0.875,27.099609375,-25.08544921875,89.599609375
1742308697,634805996,0.1728515625,-0.1318359375,0.8427734375,26.30615234375,-25.87890625,92.4072265625
1742308697,654295045,0.1767578125,-0.12890625,0.826171875,25.32958984375,-27.77099609375,95.0927734375
1742308697,674292382,0.1826171875,-0.13037109375,0.8212890625,22.94921875,-30.33447265625,97.2900390625
1742308697,694336824,0.17431640625,-0.13671875,0.8291015625,20.69091796875,-32.53173828125,98.9990234375
1742308697,714216657,0.16162109375,-0.142578125,0.8212890625,18.12744140625,-36.19384765625,100.4638671875
1742308697,734394346,0.2001953125,-0.146484375,0.830078125,17.27294921875,-37.2314453125,101.01318359375
1742308697,754256419,0.232421875,-0.15087890625,0.8359375,16.54052734375,-37.109375,100.5859375
1742308697,775367772,0.25244140625,-0.1669921875,0.853515625,16.41845703125,-35.46142578125,99.365234375
1742308697,794355701,0.2685546875,-0.17236328125,0.8525390625,16.17431640625,-32.53173828125,97.900390625
1742308697,813958670,0.27587890625,-0.17333984375,0.8544921875,15.68603515625,-28.99169921875,95.88623046875
1742308697,835267431,0.29296875,-0.17333984375,0.85546875,15.13671875,-24.71923828125,93.505859375
1742308697,854230656,0.2783203125,-0.18505859375,0.8505859375,14.83154296875,-20.8740234375,92.10205078125
1742308697,874275130,0.271484375,-0.197265625,0.84521484375,13.427734375,-18.37158203125,91.24755859375
1742308697,894565971,0.28271484375,-0.21044921875,0.85595703125,12.63427734375,-15.0146484375,90.02685546875
1742308697,909454701,0.28662109375,-0.20849609375,0.8525390625,12.02392578125,-12.51220703125,89.599609375
1742308697,929185703,0.2890625,-0.20703125,0.82421875,10.8642578125,-10.92529296875,89.29443359375
1742308697,954926238,0.3056640625,-0.20751953125,0.8125,9.765625,-10.009765625,88.37890625
1742308697,974275543,0.3095703125,-0.2080078125,0.8232421875,8.85009765625,-10.55908203125,86.85302734375
1742308697,994422800,0.2802734375,-0.22119140625,0.8486328125,9.521484375,-12.87841796875,85.87646484375
1742308698,9320075,0.28857421875,-0.2275390625,0.83349609375,10.25390625,-14.892578125,84.53369140625
1742308698,34392355,0.31494140625,-0.216796875,0.82275390625,10.25390625,-16.17431640625,82.51953125
1742308698,54571101,0.31591796875,-0.232421875,0.828125,10.25390625,-17.88330078125,81.298828125
1742308698,69704184,0.3095703125,-0.25048828125,0.8212890625,10.31494140625,-19.71435546875,79.89501953125
1742308698,94463824,0.32568359375,-0.25390625,0.82373046875,9.6435546875,-22.76611328125,78.0029296875
1742308698,114349481,0.3447265625,-0.27294921875,0.82666015625,9.27734375,-23.01025390625,76.23291015625
1742308698,134206787,0.34375,-0.29296875,0.84326171875,9.09423828125,-22.64404296875,74.70703125
1742308698,154290300,0.3251953125,-0.30078125,0.833984375,9.09423828125,-22.52197265625,73.3642578125
1742308698,174432182,0.33544921875,-0.310546875,0.833984375,8.60595703125,-22.03369140625,72.32666015625
1742308698,194388591,0.2900390625,-0.33056640625,0.83544921875,7.2021484375,-23.49853515625,72.265625
1742308698,214709737,0.24951171875,-0.33251953125,0.83935546875,5.06591796875,-24.35302734375,72.57080078125
1742308698,234436035,0.24462890625,-0.33349609375,0.845703125,3.0517578125,-25.5126953125,72.20458984375
1742308698,255216284,0.2392578125,-0.3388671875,0.880859375,3.11279296875,-26.2451171875,71.6552734375
1742308698,274799830,0.2060546875,-0.36181640625,0.92529296875,5.18798828125,-27.64892578125,70.80078125
1742308698,294380047,0.14453125,-0.3720703125,0.9384765625,8.1787109375,-29.296875,71.71630859375
1742308698,314530057,0.11865234375,-0.35888671875,0.9189453125,10.80322265625,-32.16552734375,73.974609375
1742308698,334317890,0.11328125,-0.3583984375,0.923828125,12.0849609375,-33.99658203125,75.50048828125
